acc_x,acc_y,acc_z,gyro_x,gyro_y,gyro_z,kf_roll,kf_pitch,Xk0,Xk1,Pk0,Pk1,Q0,R0
113,-479,-4062,-50,22,17,10.22,-0.503,0.115533,-0.007026,0.014778,0.003751,0.0,0.03
126,-448,-4066,-34,26,29,10.104,-0.66,0.113524,-0.009771,0.009901,0.003335,0.0,0.03
130,-332,-4257,-893,154,29,9.123,-2.038,0.096397,-0.033826,0.000753,0.000658,0.0,0.03
615,270,-5623,-1792,-104,16,4.178,-2.52,0.010086,-0.042231,0.000604,0.000544,0.0,0.03
-218,380,-2806,-738,-235,90,0.767,-2.017,-0.049448,-0.033461,0.000514,0.000471,0.0,0.03
16,-537,-3872,-89,49,124,0.4,-1.589,-0.055847,-0.025989,0.000441,0.000412,0.0,0.03
389,199,-4175,294,88,3,1.023,-2.183,-0.04498,-0.03635,0.000383,0.000362,0.0,0.03
22,-177,-4421,182,171,78,1.619,-2.342,-0.034569,-0.039123,0.000342,0.000326,0.0,0.03
380,-28,-4417,-193,32,66,1.707,-2.157,-0.033031,-0.035905,0.00031,0.000297,0.0,0.03
172,236,-4142,-223,-24,65,1.442,-2.015,-0.037664,-0.033431,0.000283,0.000274,0.0,0.03
96,-10,-4038,-78,-7,-24,1.306,-1.995,-0.040033,-0.033071,0.000264,0.000256,0.0,0.03
155,-51,-4049,-31,45,44,1.404,-2.043,-0.038323,-0.033906,0.000245,0.000238,0.0,0.03
177,-51,-4113,-48,7,129,1.559,-2.108,-0.035629,-0.035041,0.000229,0.000224,0.0,0.03
153,138,-4112,-70,-22,86,1.471,-2.106,-0.037154,-0.035011,0.000216,0.000212,0.0,0.03
126,46,-4095,-57,-8,70,1.354,-2.014,-0.039197,-0.033408,0.000203,0.0002,0.0,0.03
170,113,-4104,-75,28,72,1.247,-2.065,-0.041061,-0.034297,0.000193,0.000191,0.0,0.03
195,161,-4144,-73,-17,43,1.07,-2.101,-0.044155,-0.034922,0.000184,0.000182,0.0,0.03
127,179,-4097,-21,-13,0,0.972,-2.058,-0.045866,-0.034173,0.000177,0.000175,0.0,0.03
207,181,-4097,8,16,-25,0.965,-2.091,-0.045983,-0.034744,0.00017,0.000168,0.0,0.03
154,176,-4141,11,-14,-36,1.006,-2.125,-0.045273,-0.035345,0.000163,0.000162,0.0,0.03
116,112,-4101,25,-3,26,1.085,-2.07,-0.043889,-0.034391,0.000158,0.000157,0.0,0.03
180,222,-4122,-24,23,-14,1.072,-2.141,-0.044122,-0.035616,0.000152,0.000151,0.0,0.03
159,159,-4130,-13,-25,5,1.05,-2.143,-0.044499,-0.035663,0.000148,0.000147,0.0,0.03
130,205,-4090,1,10,14,1.012,-2.11,-0.045163,-0.035089,0.000144,0.000143,0.0,0.03
174,219,-4110,14,11,27,1.018,-2.158,-0.045061,-0.035925,0.00014,0.00014,0.0,0.03
185,174,-4163,6,-24,4,1.039,-2.124,-0.044704,-0.03532,0.000137,0.000136,0.0,0.03
103,176,-4097,-15,17,24,1.06,-2.132,-0.044338,-0.035473,0.000134,0.000133,0.0,0.03
232,187,-4146,-25,-2,16,1.019,-2.157,-0.045046,-0.035905,0.000131,0.00013,0.0,0.03
132,188,-4114,-19,-17,3,0.953,-2.137,-0.046205,-0.035557,0.000128,0.000128,0.0,0.03
168,195,-4090,-4,23,-10,0.926,-2.137,-0.046665,-0.035553,0.000126,0.000126,0.0,0.03
161,207,-4129,-15,2,12,0.897,-2.199,-0.047177,-0.036643,0.000124,0.000123,0.0,0.03
179,212,-4115,-8,-26,-12,0.865,-2.154,-0.047727,-0.035849,0.000122,0.000121,0.0,0.03
138,159,-4096,-3,12,-2,0.859,-2.154,-0.047833,-0.035843,0.00012,0.000119,0.0,0.03
163,195,-4133,-30,6,-11,0.831,-2.189,-0.048322,-0.036455,0.000118,0.000118,0.0,0.03
172,188,-4122,-40,-17,0,0.741,-2.16,-0.049905,-0.035953,0.000117,0.000116,0.0,0.03
146,186,-4092,-42,8,0,0.657,-2.157,-0.05137,-0.035906,0.000115,0.000115,0.0,0.03
173,225,-4114,-11,-6,-33,0.594,-2.173,-0.052458,-0.036174,0.000114,0.000113,0.0,0.03
151,206,-4111,-18,-1,-23,0.578,-2.173,-0.052745,-0.036178,0.000112,0.000112,0.0,0.03
154,209,-4121,-31,-4,11,0.501,-2.181,-0.054079,-0.036319,0.000111,0.000111,0.0,0.03
152,226,-4106,-24,-9,18,0.443,-2.153,-0.055108,-0.035837,0.00011,0.00011,0.0,0.03
160,256,-4110,-29,7,20,0.381,-2.156,-0.056184,-0.035879,0.000109,0.000109,0.0,0.03
177,282,-4112,-17,-10,9,0.306,-2.164,-0.057485,-0.036017,0.000108,0.000108,0.0,0.03
151,291,-4099,6,-6,-7,0.274,-2.15,-0.058047,-0.035786,0.000107,0.000107,0.0,0.03
148,284,-4099,22,6,-17,0.286,-2.158,-0.057837,-0.035918,0.000106,0.000106,0.0,0.03
164,254,-4114,27,-5,1,0.34,-2.17,-0.056902,-0.03612,0.000106,0.000106,0.0,0.03
146,228,-4110,16,-4,12,0.383,-2.16,-0.05615,-0.035957,0.000105,0.000105,0.0,0.03
157,228,-4112,17,2,15,0.419,-2.158,-0.055512,-0.035924,0.000104,0.000104,0.0,0.03
180,222,-4119,25,-3,5,0.469,-2.166,-0.054652,-0.036053,0.000104,0.000104,0.0,0.03
158,214,-4117,2,-1,-5,0.524,-2.16,-0.053687,-0.035957,0.000103,0.000103,0.0,0.03
167,226,-4120,6,-3,-8,0.5,-2.176,-0.054099,-0.03624,0.000103,0.000103,0.0,0.03
140,191,-4109,14,-1,5,0.583,-2.154,-0.052663,-0.035856,0.000102,0.000102,0.0,0.03
177,242,-4127,-8,2,0,0.589,-2.183,-0.052559,-0.03636,0.000102,0.000102,0.0,0.03
145,220,-4127,-1,-14,4,0.569,-2.169,-0.052894,-0.036104,0.000101,0.000101,0.0,0.03
185,212,-4102,20,7,-5,0.603,-2.169,-0.052315,-0.036119,0.000101,0.000101,0.0,0.03
146,230,-4122,-3,-2,-17,0.625,-2.193,-0.051919,-0.036534,0.0001,0.0001,0.0,0.03
182,206,-4120,-14,-10,-25,0.602,-2.183,-0.052323,-0.03636,0.0001,0.0001,0.0,0.03
124,157,-4100,9,-1,26,0.623,-2.177,-0.051955,-0.036257,0.0001,0.0001,0.0,0.03
171,237,-4117,-33,7,0,0.607,-2.196,-0.052241,-0.036574,9.9e-05,9.9e-05,0.0,0.03
167,195,-4123,-23,-20,4,0.519,-2.192,-0.053765,-0.036519,9.9e-05,9.9e-05,0.0,0.03
156,209,-4094,7,0,15,0.535,-2.168,-0.053502,-0.036091,9.9e-05,9.9e-05,0.0,0.03
136,213,-4127,-39,7,57,0.496,-2.193,-0.054167,-0.036525,9.9e-05,9.9e-05,0.0,0.03
194,249,-4125,-51,-21,-4,0.376,-2.166,-0.056273,-0.036056,9.8e-05,9.8e-05,0.0,0.03
158,244,-4098,-64,13,-30,0.229,-2.169,-0.058841,-0.036117,9.8e-05,9.8e-05,0.0,0.03
144,235,-4120,-86,3,-7,0.043,-2.196,-0.062074,-0.036588,9.8e-05,9.8e-05,0.0,0.03
173,243,-4124,-104,-16,8,-0.161,-2.181,-0.065649,-0.036326,9.8e-05,9.8e-05,0.0,0.03
134,263,-4094,-93,0,-4,-0.439,-2.164,-0.070492,-0.036032,9.7e-05,9.8e-05,0.0,0.03
169,267,-4104,-81,5,-12,-0.628,-2.183,-0.0738,-0.036353,9.7e-05,9.7e-05,0.0,0.03
155,287,-4116,-97,-5,-5,-0.834,-2.19,-0.077386,-0.036471,9.7e-05,9.7e-05,0.0,0.03
159,309,-4110,-114,-3,-23,-1.059,-2.178,-0.081323,-0.036263,9.7e-05,9.7e-05,0.0,0.03
196,338,-4090,-89,6,-99,-1.306,-2.216,-0.085633,-0.036933,9.7e-05,9.7e-05,0.0,0.03
183,321,-4078,-2,17,-204,-1.387,-2.294,-0.087035,-0.038286,9.7e-05,9.7e-05,0.0,0.03
153,269,-4089,39,38,-231,-1.259,-2.431,-0.084801,-0.040689,9.7e-05,9.7e-05,0.0,0.03
136,244,-4136,30,11,-134,-1.08,-2.515,-0.081682,-0.042148,9.6e-05,9.8e-05,0.0,0.03
157,316,-4142,-44,8,-84,-1.027,-2.528,-0.080754,-0.042377,9.6e-05,9.8e-05,0.0,0.03
161,310,-4136,-82,3,-73,-1.198,-2.563,-0.083749,-0.042988,9.6e-05,9.7e-05,0.0,0.03
144,312,-4084,-81,-1,-48,-1.342,-2.556,-0.086246,-0.042867,9.6e-05,9.7e-05,0.0,0.03
143,292,-4063,-51,16,-11,-1.499,-2.575,-0.089002,-0.043189,9.6e-05,9.7e-05,0.0,0.03
173,275,-4081,16,-2,2,-1.437,-2.573,-0.087913,-0.043157,9.6e-05,9.7e-05,0.0,0.03
172,393,-4202,2,14,-108,-1.366,-2.589,-0.086665,-0.043447,9.6e-05,9.7e-05,0.0,0.03
156,354,-4099,-76,13,-70,-1.546,-2.657,-0.089819,-0.044622,9.6e-05,9.7e-05,0.0,0.03
154,303,-3977,-34,-12,-33,-1.661,-2.638,-0.091817,-0.04429,9.6e-05,9.7e-05,0.0,0.03
180,317,-4062,42,8,-70,-1.584,-2.652,-0.090478,-0.044533,9.6e-05,9.7e-05,0.0,0.03
147,325,-4192,41,19,-126,-1.456,-2.712,-0.088251,-0.045592,9.6e-05,9.7e-05,0.0,0.03
170,350,-4183,-49,9,-70,-1.51,-2.758,-0.08919,-0.046388,9.6e-05,9.7e-05,0.0,0.03
222,332,-4123,7,-23,-81,-1.573,-2.761,-0.090285,-0.046437,9.6e-05,9.7e-05,0.0,0.03
113,442,-4138,-123,36,-174,-1.731,-2.83,-0.093043,-0.04765,9.5e-05,9.7e-05,0.0,0.03
206,340,-4105,-77,12,-207,-1.972,-2.888,-0.097248,-0.048665,9.5e-05,9.7e-05,0.0,0.03
192,310,-4189,23,21,-245,-1.902,-2.979,-0.096027,-0.050246,9.5e-05,9.7e-05,0.0,0.03
124,340,-4053,-16,27,-252,-1.829,-3.039,-0.094754,-0.0513,9.5e-05,9.8e-05,0.0,0.03
148,406,-4190,-27,33,-282,-1.835,-3.104,-0.094861,-0.052434,9.5e-05,9.8e-05,0.0,0.03
192,331,-4187,-64,14,-284,-1.859,-3.209,-0.095275,-0.054271,9.5e-05,9.9e-05,0.0,0.03
189,483,-4159,-118,-4,-416,-2.076,-3.281,-0.099066,-0.055523,9.5e-05,0.0001,0.0,0.03
38,321,-4050,-24,12,-375,-2.153,-3.382,-0.100403,-0.057278,9.5e-05,0.000101,0.0,0.03
122,371,-4141,-11,56,-403,-2.091,-3.516,-0.099327,-0.059622,9.5e-05,0.000101,0.0,0.03
17,211,-4072,-38,70,-295,-1.97,-3.673,-0.097216,-0.062362,9.5e-05,0.000102,0.0,0.03
168,432,-4046,-96,34,-247,-2.049,-3.793,-0.0986,-0.064457,9.5e-05,0.000102,0.0,0.03
94,425,-4117,-109,20,-254,-2.254,-3.835,-0.102178,-0.065194,9.5e-05,0.000102,0.0,0.03
46,342,-4065,-53,40,-215,-2.437,-3.885,-0.10537,-0.066062,9.5e-05,0.000102,0.0,0.03
177,415,-4152,-40,103,-218,-2.512,-4.062,-0.106676,-0.069147,9.5e-05,0.000102,0.0,0.03
258,452,-4222,-24,17,-414,-2.474,-4.124,-0.106019,-0.070231,9.5e-05,0.000103,0.0,0.03
32,418,-4111,-78,22,-417,-2.488,-4.154,-0.106255,-0.070748,9.5e-05,0.000104,0.0,0.03
28,405,-4068,-74,52,-381,-2.509,-4.208,-0.10662,-0.071702,9.5e-05,0.000104,0.0,0.03
10,396,-4058,-86,112,-301,-2.621,-4.501,-0.10857,-0.076805,9.5e-05,0.000105,0.0,0.03
114,402,-4031,-80,45,-306,-2.783,-4.722,-0.111405,-0.080678,9.5e-05,0.000105,0.0,0.03
77,425,-4186,-44,66,-284,-2.91,-4.803,-0.113624,-0.082084,9.5e-05,0.000105,0.0,0.03
100,428,-4218,-37,36,-298,-2.952,-4.952,-0.114352,-0.084685,9.5e-05,0.000106,0.0,0.03
116,427,-4082,-63,74,-262,-3.019,-5.108,-0.115529,-0.087415,9.5e-05,0.000106,0.0,0.03
233,461,-3882,-71,-24,-346,-3.179,-5.165,-0.118309,-0.088396,9.5e-05,0.000106,0.0,0.03
34,539,-4440,-97,51,-367,-3.308,-5.214,-0.120574,-0.08926,9.5e-05,0.000106,0.0,0.03
-223,406,-3779,-93,69,-326,-3.486,-5.245,-0.123681,-0.089804,9.5e-05,0.000107,0.0,0.03
217,512,-4455,-90,150,-316,-3.502,-5.478,-0.123958,-0.093862,9.5e-05,0.000107,0.0,0.03
8,386,-3867,-143,112,-326,-3.543,-5.625,-0.124661,-0.096433,9.5e-05,0.000107,0.0,0.03
50,616,-3849,-124,19,-358,-3.775,-5.723,-0.128717,-0.098142,9.5e-05,0.000108,0.0,0.03
36,418,-3860,-88,87,-349,-3.949,-5.829,-0.131746,-0.099993,9.5e-05,0.000108,0.0,0.03
48,562,-4085,-20,127,-320,-4.085,-6.058,-0.134133,-0.103992,9.5e-05,0.000108,0.0,0.03
216,622,-4724,-146,-33,-360,-4.113,-6.304,-0.134617,-0.108274,9.5e-05,0.000108,0.0,0.03
201,509,-4034,-137,-24,-413,-4.18,-6.483,-0.135793,-0.111404,9.5e-05,0.000109,0.0,0.03
-72,565,-3629,-49,49,-347,-4.441,-6.602,-0.14034,-0.113482,9.5e-05,0.000109,0.0,0.03
-189,462,-3390,9,74,-314,-4.637,-6.678,-0.143768,-0.114801,9.5e-05,0.000109,0.0,0.03
54,750,-4746,-101,80,-390,-4.667,-6.74,-0.144283,-0.115893,9.5e-05,0.00011,0.0,0.03
184,734,-4836,-163,106,-388,-4.805,-7.036,-0.146688,-0.121052,9.5e-05,0.00011,0.0,0.03
88,593,-4215,-126,169,-341,-4.962,-7.384,-0.14944,-0.127134,9.5e-05,0.00011,0.0,0.03
130,565,-3864,-47,80,-366,-5.101,-7.593,-0.151856,-0.130771,9.5e-05,0.00011,0.0,0.03
18,786,-4792,-196,34,-345,-5.238,-7.749,-0.154251,-0.133496,9.5e-05,0.00011,0.0,0.03
562,616,-4059,-143,-216,-459,-5.421,-7.915,-0.157442,-0.136406,9.5e-05,0.00011,0.0,0.03
-475,480,-3283,-295,-119,-254,-5.553,-8.309,-0.159743,-0.14327,9.5e-05,0.00011,0.0,0.03
528,874,-4418,-547,-599,-310,-5.937,-8.262,-0.166457,-0.14245,9.5e-05,0.000111,0.0,0.03
-661,3376,-1983,450,344,283,-7.974,-8.485,-0.202011,-0.146338,9.5e-05,0.00011,0.0,0.03
462,3650,-3976,794,-214,724,-5.722,-7.465,-0.162694,-0.128541,9.5e-05,0.000111,0.0,0.03
-208,2445,-2618,917,-61,668,-4.721,-6.763,-0.145231,-0.116292,9.5e-05,0.000113,0.0,0.03
1226,2350,-3698,966,138,519,-3.466,-6.645,-0.123327,-0.114226,9.5e-05,0.000114,0.0,0.03
334,1958,-4177,345,222,14,-2.25,-5.984,-0.102098,-0.102698,9.5e-05,0.000115,0.0,0.03
-267,2758,-2957,-750,83,-177,-3.001,-5.724,-0.115207,-0.098161,9.5e-05,0.000116,0.0,0.03
-1252,1660,-3235,167,0,207,-4.617,-4.826,-0.143417,-0.082482,9.5e-05,0.000115,0.0,0.03
735,60,-4512,132,215,-14,-4.727,-5.421,-0.145337,-0.092872,9.5e-05,0.000113,0.0,0.03
502,568,-4277,3,26,-103,-4.386,-5.531,-0.13939,-0.094785,9.5e-05,0.000112,0.0,0.03
-229,758,-3922,98,18,-30,-4.091,-5.54,-0.134234,-0.09495,9.5e-05,0.000111,0.0,0.03
207,512,-4101,-23,-20,33,-4.11,-5.305,-0.134563,-0.090847,9.5e-05,0.00011,0.0,0.03
274,531,-4047,-13,-29,-33,-4.128,-5.13,-0.134876,-0.087785,9.5e-05,0.000109,0.0,0.03
97,571,-4069,4,-30,-1,-4.149,-4.958,-0.135247,-0.084792,9.5e-05,0.000108,0.0,0.03
110,582,-4062,38,46,16,-4.121,-4.881,-0.134755,-0.08345,9.5e-05,0.000107,0.0,0.03
210,546,-4117,51,13,0,-4.017,-4.885,-0.132939,-0.083506,9.5e-05,0.000107,0.0,0.03
151,534,-4106,34,-26,13,-3.87,-4.725,-0.130372,-0.080725,9.5e-05,0.000106,0.0,0.03
160,521,-4068,49,10,5,-3.784,-4.604,-0.12888,-0.078606,9.5e-05,0.000105,0.0,0.03
141,573,-4036,102,20,-23,-3.576,-4.595,-0.12524,-0.078457,9.5e-05,0.000104,0.0,0.03
170,523,-4064,123,-7,39,-3.333,-4.528,-0.121008,-0.077279,9.5e-05,0.000104,0.0,0.03
133,572,-4063,190,-44,44,-3.005,-4.324,-0.115275,-0.073729,9.5e-05,0.000103,0.0,0.03
200,468,-4047,258,-1,61,-2.46,-4.163,-0.105762,-0.070908,9.5e-05,0.000103,0.0,0.03
90,580,-3996,417,57,41,-1.655,-4.122,-0.091724,-0.070204,9.5e-05,0.000102,0.0,0.03
194,361,-4132,401,-97,245,-0.558,-4.037,-0.072577,-0.068719,9.5e-05,0.000102,0.0,0.03
170,326,-4079,291,-57,208,0.218,-3.74,-0.059024,-0.063535,9.5e-05,0.000102,0.0,0.03
162,281,-4122,148,-29,131,0.753,-3.581,-0.049684,-0.060756,9.5e-05,0.000102,0.0,0.03
164,128,-4330,-246,-68,111,0.411,-3.399,-0.055658,-0.057572,9.5e-05,0.000102,0.0,0.03
175,169,-4123,-218,15,39,-0.232,-3.356,-0.066883,-0.056824,9.5e-05,0.000101,0.0,0.03
202,210,-4064,15,-4,121,-0.347,-3.231,-0.068894,-0.054639,9.5e-05,0.000101,0.0,0.03
2,223,-4117,-10,11,67,-0.3,-3.178,-0.068065,-0.053713,9.5e-05,0.000101,0.0,0.03
240,151,-4124,-82,-22,-44,-0.348,-3.089,-0.068913,-0.052171,9.5e-05,0.0001,0.0,0.03
136,297,-4082,-128,54,-264,-0.705,-3.192,-0.075137,-0.053969,9.5e-05,0.0001,0.0,0.03
222,40,-4153,-17,20,-328,-0.681,-3.224,-0.074725,-0.054527,9.5e-05,0.000101,0.0,0.03
176,-89,-4105,212,0,37,4.851,-0.71,0.021828,-0.010653,0.014778,0.003756,0.0,0.03
169,-99,-4110,221,-3,32,4.929,-0.903,0.023202,-0.014019,0.009901,0.003339,0.0,0.03
174,-114,-4117,-634,43,-26,5.628,-2.244,0.035394,-0.037414,0.000753,0.000657,0.0,0.03
299,940,-4582,-1550,51,11,1.697,-2.301,-0.033212,-0.038407,0.000604,0.000542,0.0,0.03
208,-54,-3914,-1100,-25,-86,-1.004,-2.356,-0.080361,-0.039377,0.000506,0.000462,0.0,0.03
252,-438,-3927,-333,24,-166,-1.07,-2.469,-0.081511,-0.041351,0.000435,0.000406,0.0,0.03
234,312,-4057,227,-9,-106,-0.212,-2.626,-0.066532,-0.044091,0.000383,0.000363,0.0,0.03
149,356,-4083,-2,35,-118,-0.082,-2.672,-0.064256,-0.044883,0.000342,0.000328,0.0,0.03
191,816,-4034,19,-12,-174,-0.535,-2.769,-0.072178,-0.046579,0.00031,0.000301,0.0,0.03
163,386,-4169,-245,14,-153,-1.069,-2.857,-0.081484,-0.04812,0.000286,0.00028,0.0,0.03
169,528,-4022,-102,-8,-153,-1.921,-2.862,-0.096359,-0.048212,0.000262,0.000259,0.0,0.03
197,401,-4080,-6,7,-135,-2.025,-2.929,-0.098172,-0.049375,0.000243,0.000243,0.0,0.03
148,564,-4029,180,21,-84,-1.822,-2.946,-0.094637,-0.049667,0.000229,0.000229,0.0,0.03
150,504,-4098,200,-10,-25,-1.405,-2.923,-0.087353,-0.049262,0.000216,0.000216,0.0,0.03
188,469,-4115,70,-2,20,-1.239,-2.86,-0.084454,-0.048179,0.000204,0.000204,0.0,0.03
169,512,-4082,103,-9,28,-1.158,-2.826,-0.083041,-0.047572,0.000194,0.000194,0.0,0.03
166,421,-4083,90,-8,45,-0.978,-2.76,-0.079901,-0.046433,0.000184,0.000184,0.0,0.03
198,403,-4104,88,1,14,-0.831,-2.759,-0.077339,-0.046403,0.000176,0.000176,0.0,0.03
164,346,-4110,71,3,-21,-0.67,-2.745,-0.074522,-0.046166,0.000169,0.000169,0.0,0.03
208,328,-4117,24,9,-48,-0.581,-2.765,-0.07297,-0.046506,0.000164,0.000164,0.0,0.03
181,324,-4106,-18,10,-108,-0.588,-2.811,-0.073096,-0.047321,0.000158,0.000158,0.0,0.03
174,296,-4114,-37,7,-104,-0.656,-2.845,-0.074279,-0.04791,0.000153,0.000154,0.0,0.03
175,263,-4104,-39,0,-37,-0.733,-2.859,-0.075617,-0.048161,0.000148,0.000149,0.0,0.03
157,284,-4108,-34,-4,30,-0.776,-2.824,-0.076377,-0.047547,0.000144,0.000145,0.0,0.03
192,336,-4115,-69,-5,12,-0.909,-2.791,-0.078696,-0.046959,0.00014,0.000141,0.0,0.03
193,335,-4105,-83,-3,-14,-1.11,-2.783,-0.082199,-0.046826,0.000137,0.000137,0.0,0.03
165,322,-4104,-61,-5,-6,-1.279,-2.773,-0.085153,-0.046658,0.000134,0.000134,0.0,0.03
181,346,-4083,-26,-3,20,-1.364,-2.734,-0.086644,-0.045977,0.000131,0.000131,0.0,0.03
185,348,-4089,19,3,0,-1.363,-2.72,-0.086623,-0.045725,0.000128,0.000129,0.0,0.03
182,390,-4121,11,-8,-8,-1.308,-2.707,-0.085666,-0.045506,0.000126,0.000126,0.0,0.03
193,449,-4081,-1,4,-85,-1.336,-2.717,-0.086141,-0.045678,0.000124,0.000124,0.0,0.03
162,474,-4077,15,7,-72,-1.362,-2.751,-0.086606,-0.046261,0.000122,0.000122,0.0,0.03
166,499,-4087,24,3,-64,-1.375,-2.763,-0.08683,-0.046471,0.00012,0.00012,0.0,0.03
177,514,-4074,37,9,-74,-1.382,-2.785,-0.086949,-0.046867,0.000118,0.000119,0.0,0.03
162,449,-4077,69,7,-19,-1.324,-2.797,-0.085946,-0.047075,0.000117,0.000117,0.0,0.03
148,463,-4062,149,-3,28,-1.106,-2.776,-0.08213,-0.046701,0.000115,0.000116,0.0,0.03
171,414,-4084,239,-4,76,-0.679,-2.735,-0.074681,-0.045991,0.000114,0.000114,0.0,0.03
179,397,-4066,323,-9,104,-0.084,-2.697,-0.064296,-0.045329,0.000112,0.000113,0.0,0.03
153,322,-4091,367,-9,144,0.734,-2.649,-0.050027,-0.044489,0.000111,0.000112,0.0,0.03
180,266,-4145,203,-4,158,1.366,-2.613,-0.038988,-0.043863,0.00011,0.000111,0.0,0.03
193,307,-4208,6,-10,90,1.554,-2.593,-0.035715,-0.043511,0.000109,0.00011,0.0,0.03
141,139,-4133,-71,2,122,1.387,-2.559,-0.038633,-0.04292,0.000108,0.000109,0.0,0.03
240,220,-4181,-124,0,38,1.092,-2.579,-0.043766,-0.043267,0.000107,0.000109,0.0,0.03
214,226,-4160,-111,-10,-15,0.71,-2.587,-0.05044,-0.043408,0.000106,0.000108,0.0,0.03
177,103,-4031,27,-6,21,0.64,-2.58,-0.05167,-0.043293,0.000106,0.000107,0.0,0.03
153,87,-4020,112,20,38,0.826,-2.578,-0.048422,-0.043245,0.000105,0.000106,0.0,0.03
189,109,-4126,126,-15,35,1.169,-2.596,-0.042431,-0.043563,0.000104,0.000105,0.0,0.03
196,170,-4165,36,8,-6,1.363,-2.6,-0.039044,-0.043632,0.000104,0.000105,0.0,0.03
176,130,-4095,-28,1,-16,1.348,-2.631,-0.039311,-0.04418,0.000103,0.000104,0.0,0.03
186,121,-4160,-38,3,-21,1.275,-2.625,-0.040578,-0.044073,0.000103,0.000103,0.0,0.03
183,82,-4076,-11,0,41,1.222,-2.634,-0.041499,-0.044229,0.000102,0.000103,0.0,0.03
198,117,-4104,44,-23,-43,1.343,-2.615,-0.0394,-0.043899,0.000102,0.000102,0.0,0.03
172,80,-4113,3,1,44,1.379,-2.595,-0.038762,-0.043551,0.000101,0.000102,0.0,0.03
192,186,-4193,-84,-27,42,1.191,-2.568,-0.04205,-0.04307,0.000101,0.000101,0.0,0.03
166,-27,-4085,-3,-8,109,1.162,-2.506,-0.042552,-0.041992,0.0001,0.000101,0.0,0.03
155,23,-4075,129,-4,93,1.444,-2.497,-0.037632,-0.041828,0.0001,0.000101,0.0,0.03
184,77,-4133,74,-6,105,1.769,-2.459,-0.031953,-0.04117,0.0001,0.000101,0.0,0.03
185,137,-4144,-54,-4,108,1.771,-2.447,-0.031924,-0.040958,9.9e-05,0.0001,0.0,0.03
167,63,-4153,-138,-22,172,1.525,-2.392,-0.036214,-0.040005,9.9e-05,0.0001,0.0,0.03
148,58,-4097,-100,-8,223,1.242,-2.343,-0.041161,-0.039155,9.9e-05,0.0001,0.0,0.03
174,93,-4119,-49,-24,203,1.111,-2.293,-0.04344,-0.038267,9.9e-05,0.0001,0.0,0.03
215,167,-4105,-41,-5,123,1.014,-2.256,-0.045134,-0.037628,9.8e-05,0.0001,0.0,0.03
220,196,-4120,-53,-3,2,0.887,-2.278,-0.047353,-0.038006,9.8e-05,0.0001,0.0,0.03
162,175,-4116,-80,1,-12,0.729,-2.289,-0.050107,-0.038198,9.8e-05,0.0001,0.0,0.03
176,186,-4112,-91,-3,12,0.532,-2.288,-0.053552,-0.03818,9.8e-05,9.9e-05,0.0,0.03
152,197,-4104,-70,2,25,0.363,-2.286,-0.056491,-0.038151,9.7e-05,9.9e-05,0.0,0.03
192,229,-4123,-95,-3,21,0.169,-2.286,-0.059879,-0.03815,9.7e-05,9.9e-05,0.0,0.03
186,256,-4119,-143,2,2,-0.123,-2.295,-0.064981,-0.038303,9.7e-05,9.9e-05,0.0,0.03
181,271,-4119,-163,-7,-35,-0.52,-2.308,-0.071913,-0.038537,9.7e-05,9.8e-05,0.0,0.03
168,213,-4092,-105,6,-13,-0.778,-2.316,-0.076416,-0.038682,9.7e-05,9.8e-05,0.0,0.03
166,246,-4113,-82,-6,50,-0.938,-2.309,-0.079204,-0.038551,9.7e-05,9.8e-05,0.0,0.03
187,338,-4105,-102,7,23,-1.153,-2.288,-0.082958,-0.038184,9.7e-05,9.8e-05,0.0,0.03
199,337,-4112,-109,-3,-32,-1.406,-2.309,-0.087379,-0.038556,9.6e-05,9.8e-05,0.0,0.03
213,356,-4096,-77,14,-100,-1.608,-2.355,-0.090895,-0.039353,9.6e-05,9.7e-05,0.0,0.03
195,361,-4097,-31,20,-224,-1.696,-2.468,-0.092438,-0.041332,9.6e-05,9.8e-05,0.0,0.03
181,320,-4065,109,45,-254,-1.558,-2.596,-0.090029,-0.043564,9.6e-05,9.8e-05,0.0,0.03
156,335,-4130,59,35,-138,-1.322,-2.747,-0.0859,-0.046193,9.6e-05,9.8e-05,0.0,0.03
122,303,-4109,-36,-12,28,-1.311,-2.717,-0.085721,-0.045677,9.6e-05,9.8e-05,0.0,0.03
206,324,-4068,-46,14,51,-1.43,-2.696,-0.087781,-0.045306,9.6e-05,9.8e-05,0.0,0.03
237,323,-4119,8,-16,0,-1.442,-2.706,-0.087991,-0.045487,9.6e-05,9.8e-05,0.0,0.03
181,343,-4060,28,19,-69,-1.374,-2.727,-0.086805,-0.045841,9.6e-05,9.8e-05,0.0,0.03
261,364,-4065,20,0,-183,-1.264,-2.784,-0.084898,-0.046844,9.6e-05,9.7e-05,0.0,0.03
192,312,-4181,-5,11,-196,-1.214,-2.851,-0.084016,-0.048012,9.6e-05,9.8e-05,0.0,0.03
155,305,-4063,-46,-3,-140,-1.24,-2.895,-0.084478,-0.048777,9.6e-05,9.8e-05,0.0,0.03
193,289,-4118,-55,12,-148,-1.3,-2.912,-0.085526,-0.049085,9.6e-05,9.8e-05,0.0,0.03
192,402,-4208,-139,5,-221,-1.586,-3.024,-0.090508,-0.051038,9.5e-05,9.8e-05,0.0,0.03
192,401,-4026,-40,4,-276,-1.79,-3.11,-0.094079,-0.052526,9.5e-05,9.8e-05,0.0,0.03
182,344,-4037,56,34,-242,-1.687,-3.224,-0.092283,-0.05453,9.5e-05,9.9e-05,0.0,0.03
158,564,-4174,80,12,-219,-1.51,-3.295,-0.08919,-0.055755,9.5e-05,9.9e-05,0.0,0.03
203,728,-4059,52,42,-234,-1.479,-3.388,-0.088653,-0.057381,9.5e-05,9.9e-05,0.0,0.03
163,629,-4039,58,15,-235,-1.414,-3.466,-0.087505,-0.058753,9.5e-05,0.0001,0.0,0.03
131,683,-4042,12,26,-137,-1.455,-3.508,-0.088225,-0.059473,9.5e-05,0.0001,0.0,0.03
143,631,-4087,31,-9,5,-1.547,-3.484,-0.089826,-0.059068,9.5e-05,9.9e-05,0.0,0.03
131,513,-4079,84,-6,68,-1.475,-3.399,-0.088583,-0.057579,9.5e-05,9.9e-05,0.0,0.03
192,457,-4082,127,0,35,-1.286,-3.366,-0.085283,-0.057008,9.5e-05,9.9e-05,0.0,0.03
200,345,-4107,122,-2,15,-0.964,-3.347,-0.079654,-0.056679,9.5e-05,9.9e-05,0.0,0.03
178,313,-4112,102,-1,-9,-0.702,-3.312,-0.075084,-0.05606,9.5e-05,9.8e-05,0.0,0.03
215,332,-4126,68,13,-114,-0.501,-3.335,-0.071569,-0.056462,9.5e-05,9.8e-05,0.0,0.03
202,272,-4103,44,7,-143,-0.37,-3.368,-0.069286,-0.057038,9.5e-05,9.8e-05,0.0,0.03
155,214,-4097,69,10,-74,-0.194,-3.389,-0.066219,-0.057411,9.5e-05,9.8e-05,0.0,0.03
146,199,-4108,104,-7,30,0.054,-3.357,-0.061889,-0.056848,9.5e-05,9.8e-05,0.0,0.03
175,212,-4106,134,-8,87,0.36,-3.296,-0.056546,-0.055775,9.5e-05,9.8e-05,0.0,0.03
179,249,-4126,85,-12,101,0.622,-3.241,-0.051983,-0.05482,9.5e-05,9.8e-05,0.0,0.03
190,266,-4127,28,-8,61,0.71,-3.191,-0.050439,-0.053942,9.5e-05,9.8e-05,0.0,0.03
178,222,-4121,-5,-6,53,0.696,-3.155,-0.05069,-0.053314,9.5e-05,9.7e-05,0.0,0.03
164,205,-4116,-18,-9,93,0.664,-3.105,-0.051237,-0.052454,9.5e-05,9.7e-05,0.0,0.03
187,223,-4114,-14,-8,86,0.608,-3.045,-0.052216,-0.051394,9.5e-05,9.7e-05,0.0,0.03
189,285,-4106,-3,0,-16,0.584,-3.028,-0.05264,-0.051105,9.5e-05,9.7e-05,0.0,0.03
229,257,-4108,-7,6,-90,0.549,-3.039,-0.053253,-0.051288,9.5e-05,9.7e-05,0.0,0.03
179,191,-4110,9,1,-56,0.55,-3.059,-0.053229,-0.051639,9.5e-05,9.7e-05,0.0,0.03
130,182,-4111,11,-3,6,0.604,-3.036,-0.052288,-0.051249,9.5e-05,9.7e-05,0.0,0.03
190,202,-4120,-20,-8,78,0.588,-2.991,-0.052573,-0.050455,9.5e-05,9.7e-05,0.0,0.03
175,187,-4112,-1,-13,102,0.56,-2.946,-0.053059,-0.049671,9.5e-05,9.7e-05,0.0,0.03
167,188,-4152,-45,-11,115,0.516,-2.884,-0.053824,-0.048588,9.5e-05,9.7e-05,0.0,0.03
320,216,-4084,-61,9,71,0.376,-2.859,-0.056267,-0.048155,9.5e-05,9.7e-05,0.0,0.03
207,270,-4118,-86,20,-202,0.215,-2.994,-0.059078,-0.050515,9.5e-05,9.7e-05,0.0,0.03
230,256,-4128,-136,37,-381,-0.029,-3.104,-0.063332,-0.052423,9.5e-05,9.7e-05,0.0,0.03
162,292,-4118,-155,32,-426,-0.334,-3.283,-0.068659,-0.055561,9.5e-05,9.9e-05,0.0,0.03
213,386,-4060,-100,53,-488,-0.595,-3.426,-0.073213,-0.058058,9.5e-05,0.0001,0.0,0.03
240,379,-4066,-27,57,-504,-0.704,-3.682,-0.075127,-0.062515,9.5e-05,0.000101,0.0,0.03
157,514,-4100,41,32,-594,-0.663,-3.871,-0.074407,-0.065811,9.5e-05,0.000102,0.0,0.03
110,494,-4081,20,78,-570,-0.586,-4.038,-0.073067,-0.068738,9.5e-05,0.000104,0.0,0.03
177,484,-4107,23,54,-518,-0.554,-4.359,-0.072509,-0.074338,9.5e-05,0.000105,0.0,0.03
84,396,-4089,49,5,-372,-0.434,-4.445,-0.070407,-0.075834,9.5e-05,0.000106,0.0,0.03
173,361,-4074,40,22,-220,-0.33,-4.459,-0.068584,-0.076077,9.5e-05,0.000106,0.0,0.03
89,255,-4137,49,-14,-26,-0.219,-4.401,-0.06666,-0.075069,9.5e-05,0.000105,0.0,0.03
227,241,-4078,80,-16,102,-0.075,-4.244,-0.064139,-0.07232,9.5e-05,0.000105,0.0,0.03
232,288,-4098,70,0,71,0.114,-4.229,-0.060843,-0.072073,9.5e-05,0.000104,0.0,0.03
125,267,-4137,72,-20,37,0.269,-4.101,-0.058143,-0.069835,9.5e-05,0.000104,0.0,0.03
238,246,-4102,23,12,15,0.397,-4.062,-0.055905,-0.069143,9.5e-05,0.000103,0.0,0.03
198,298,-4140,-10,-14,-27,0.364,-4.023,-0.056481,-0.068469,9.5e-05,0.000103,0.0,0.03
152,231,-4092,-1,9,-31,0.36,-3.955,-0.056553,-0.067288,9.5e-05,0.000102,0.0,0.03
212,242,-4119,-22,-2,-6,0.346,-3.936,-0.056796,-0.066952,9.5e-05,0.000102,0.0,0.03
144,234,-4117,-57,-4,34,0.247,-3.868,-0.058514,-0.06576,9.5e-05,0.000101,0.0,0.03
187,241,-4127,-78,-12,41,0.068,-3.799,-0.061652,-0.064552,9.5e-05,0.000101,0.0,0.03
196,269,-4106,-91,-1,18,-0.124,-3.758,-0.064994,-0.063844,9.5e-05,0.0001,0.0,0.03
172,283,-4124,-115,-6,0,-0.383,-3.717,-0.069517,-0.063123,9.5e-05,0.0001,0.0,0.03
199,289,-4095,-108,6,-25,-0.673,-3.679,-0.074577,-0.062467,9.5e-05,0.0001,0.0,0.03
184,321,-4117,-142,0,-32,-0.973,-3.673,-0.079808,-0.062358,9.5e-05,9.9e-05,0.0,0.03
168,324,-4107,-159,2,-15,-1.339,-3.635,-0.086205,-0.061692,9.5e-05,9.9e-05,0.0,0.03
195,320,-4088,-76,2,2,-1.628,-3.611,-0.091246,-0.061277,9.5e-05,9.9e-05,0.0,0.03
161,290,-4058,59,9,47,-1.555,-3.575,-0.089969,-0.060657,9.5e-05,9.9e-05,0.0,0.03
188,460,-4082,108,0,51,-1.362,-3.55,-0.086599,-0.060212,9.5e-05,9.8e-05,0.0,0.03
167,375,-4110,46,-7,167,-1.152,-3.482,-0.082938,-0.05902,9.5e-05,9.8e-05,0.0,0.03
157,426,-4152,1,-42,329,-1.184,-3.343,-0.083505,-0.056609,9.5e-05,9.9e-05,0.0,0.03
180,529,-4060,-36,-42,354,-1.313,-3.144,-0.085742,-0.053121,9.5e-05,9.9e-05,0.0,0.03
253,545,-4078,-22,-37,242,-1.521,-2.988,-0.089383,-0.050404,9.5e-05,0.0001,0.0,0.03
217,540,-4043,53,-18,98,-1.582,-2.895,-0.090449,-0.048788,9.5e-05,0.0001,0.0,0.03
178,539,-4063,123,3,29,-1.429,-2.881,-0.087772,-0.048539,9.5e-05,0.0001,0.0,0.03
216,513,-4101,141,-4,-15,-1.206,-2.871,-0.083889,-0.048366,9.5e-05,9.9e-05,0.0,0.03
179,454,-4066,181,10,-48,-0.85,-2.891,-0.077673,-0.048704,9.5e-05,9.9e-05,0.0,0.03
225,390,-4107,165,8,-97,-0.455,-2.924,-0.070777,-0.049282,9.5e-05,9.9e-05,0.0,0.03
185,244,-4124,127,-3,-91,-0.118,-2.957,-0.064887,-0.049869,9.5e-05,9.9e-05,0.0,0.03
159,217,-4111,124,3,-49,0.195,-2.944,-0.059428,-0.049644,9.5e-05,9.8e-05,0.0,0.03
199,190,-4110,165,0,-41,0.546,-2.955,-0.053299,-0.049825,9.5e-05,9.8e-05,0.0,0.03
159,140,-4111,157,-12,34,1.009,-2.924,-0.045227,-0.049286,9.5e-05,9.8e-05,0.0,0.03
138,140,-4126,99,-12,169,1.287,-2.87,-0.040377,-0.048338,9.5e-05,9.8e-05,0.0,0.03
149,154,-4160,0,-23,296,1.373,-2.773,-0.038861,-0.046654,9.5e-05,9.8e-05,0.0,0.03
169,167,-4133,-92,-24,358,1.235,-2.687,-0.04127,-0.045153,9.5e-05,9.9e-05,0.0,0.03
195,187,-4103,-114,-21,321,0.903,-2.577,-0.04708,-0.043233,9.5e-05,0.0001,0.0,0.03
203,159,-4066,-54,-25,272,0.711,-2.511,-0.050419,-0.042076,9.5e-05,0.0001,0.0,0.03
205,190,-4078,29,-8,196,0.721,-2.443,-0.050248,-0.040898,9.5e-05,0.0001,0.0,0.03
214,204,-4132,49,-15,99,0.808,-2.425,-0.048723,-0.040581,9.5e-05,0.0001,0.0,0.03
176,153,-4112,48,-5,77,0.933,-2.399,-0.046544,-0.040126,9.5e-05,0.0001,0.0,0.03
188,159,-4100,17,-2,53,1.019,-2.395,-0.045049,-0.040054,9.5e-05,0.0001,0.0,0.03
188,218,-4135,-53,-2,-9,0.923,-2.396,-0.046714,-0.040071,9.5e-05,9.9e-05,0.0,0.03
178,165,-4140,-107,-10,13,0.724,-2.387,-0.050204,-0.039909,9.5e-05,9.9e-05,0.0,0.03
192,167,-4105,-60,1,-9,0.527,-2.384,-0.053634,-0.039871,9.5e-05,9.9e-05,0.0,0.03
165,162,-4086,42,-2,-20,0.545,-2.39,-0.053313,-0.039972,9.5e-05,9.9e-05,0.0,0.03
185,112,-4082,111,8,-2,0.817,-2.398,-0.048577,-0.040104,9.5e-05,9.8e-05,0.0,0.03
178,196,-4140,33,-1,4,1.004,-2.416,-0.045313,-0.040428,9.5e-05,9.8e-05,0.0,0.03
176,199,-4147,-55,-7,19,0.946,-2.394,-0.046326,-0.040034,9.5e-05,9.8e-05,0.0,0.03
196,178,-4101,-37,-2,-11,0.834,-2.405,-0.048273,-0.040231,9.5e-05,9.8e-05,0.0,0.03
165,140,-4112,7,-5,31,0.845,-2.393,-0.048088,-0.040012,9.5e-05,9.8e-05,0.0,0.03
172,160,-4111,15,1,65,0.888,-2.383,-0.047338,-0.039848,9.5e-05,9.7e-05,0.0,0.03
174,154,-4115,15,-4,80,0.937,-2.377,-0.046476,-0.039733,9.5e-05,9.7e-05,0.0,0.03
182,166,-4117,4,-4,64,0.955,-2.367,-0.046165,-0.039561,9.5e-05,9.7e-05,0.0,0.03
203,175,-4105,26,1,-15,0.994,-2.382,-0.045491,-0.039825,9.5e-05,9.7e-05,0.0,0.03
210,192,-4117,25,6,-108,1.074,-2.422,-0.044088,-0.040526,9.5e-05,9.7e-05,0.0,0.03
201,198,-4138,-36,6,-163,1.063,-2.46,-0.044281,-0.041189,9.5e-05,9.7e-05,0.0,0.03
172,158,-4121,-62,6,-162,0.953,-2.502,-0.046195,-0.04193,9.5e-05,9.7e-05,0.0,0.03
158,145,-4120,-67,7,-106,0.819,-2.525,-0.048545,-0.042317,9.5e-05,9.7e-05,0.0,0.03
174,142,-4102,-33,1,-88,0.746,-2.547,-0.049812,-0.042714,9.5e-05,9.7e-05,0.0,0.03
176,160,-4117,-25,1,-52,0.722,-2.566,-0.050228,-0.043035,9.5e-05,9.7e-05,0.0,0.03
177,188,-4125,-50,-2,-10,0.63,-2.567,-0.051831,-0.043049,9.5e-05,9.7e-05,0.0,0.03
171,181,-4107,-27,-5,2,0.542,-2.56,-0.053367,-0.042931,9.5e-05,9.7e-05,0.0,0.03
174,194,-4112,-7,-5,16,0.541,-2.548,-0.053396,-0.042722,9.5e-05,9.7e-05,0.0,0.03
178,256,-4135,-57,-5,31,0.433,-2.535,-0.055277,-0.042492,9.5e-05,9.7e-05,0.0,0.03
185,247,-4121,-104,-1,15,0.219,-2.524,-0.059008,-0.042308,9.5e-05,9.6e-05,0.0,0.03
191,264,-4127,-144,0,-23,-0.087,-2.534,-0.06435,-0.042479,9.5e-05,9.6e-05,0.0,0.03
176,256,-4109,-148,0,-27,-0.451,-2.535,-0.070701,-0.042493,9.5e-05,9.6e-05,0.0,0.03
179,266,-4103,-131,0,-16,-0.759,-2.534,-0.07608,-0.042486,9.5e-05,9.6e-05,0.0,0.03
178,293,-4107,-124,-5,-7,-1.018,-2.529,-0.080593,-0.042399,9.5e-05,9.6e-05,0.0,0.03
176,298,-4092,-82,-2,-1,-1.287,-2.524,-0.085288,-0.042314,9.5e-05,9.6e-05,0.0,0.03
198,307,-4094,-14,-1,-13,-1.353,-2.529,-0.08645,-0.042397,9.5e-05,9.6e-05,0.0,0.03
178,277,-4074,97,5,-59,-1.146,-2.552,-0.082839,-0.042802,9.5e-05,9.6e-05,0.0,0.03
166,337,-4144,41,5,-41,-0.958,-2.573,-0.079548,-0.043162,9.5e-05,9.6e-05,0.0,0.03
181,316,-4152,-54,-8,34,-1.004,-2.568,-0.080352,-0.043076,9.5e-05,9.6e-05,0.0,0.03
159,324,-4108,-109,-6,56,-1.213,-2.534,-0.083996,-0.042487,9.5e-05,9.6e-05,0.0,0.03
208,330,-4053,-69,-7,-22,-1.461,-2.528,-0.088335,-0.042381,9.5e-05,9.6e-05,0.0,0.03
204,303,-4071,20,14,-54,-1.457,-2.554,-0.088261,-0.042822,9.5e-05,9.6e-05,0.0,0.03
186,374,-4096,20,16,-76,-1.384,-2.624,-0.086987,-0.044056,9.5e-05,9.6e-05,0.0,0.03
195,331,-4080,2,5,-47,-1.311,-2.646,-0.085721,-0.044445,9.5e-05,9.6e-05,0.0,0.03
162,286,-4104,-4,-2,28,-1.274,-2.659,-0.085074,-0.044662,9.5e-05,9.6e-05,0.0,0.03
194,411,-4075,-111,-1,-8,-1.424,-2.652,-0.087684,-0.044546,9.5e-05,9.6e-05,0.0,0.03
230,455,-4154,-104,1,-120,-1.789,-2.696,-0.094064,-0.045308,9.5e-05,9.6e-05,0.0,0.03
213,413,-4078,59,11,-139,-1.764,-2.787,-0.093612,-0.046892,9.5e-05,9.6e-05,0.0,0.03
112,470,-3962,119,-3,33,-1.537,-2.775,-0.089665,-0.046692,9.5e-05,9.6e-05,0.0,0.03
175,620,-4132,86,-12,73,-1.406,-2.726,-0.087377,-0.045828,9.5e-05,9.6e-05,0.0,0.03
235,713,-4113,48,3,-20,-1.407,-2.722,-0.087385,-0.045766,9.5e-05,9.6e-05,0.0,0.03
170,591,-4071,39,2,-52,-1.423,-2.757,-0.087669,-0.046374,9.5e-05,9.6e-05,0.0,0.03
173,496,-4065,66,-3,-25,-1.388,-2.751,-0.08706,-0.046275,9.5e-05,9.6e-05,0.0,0.03
174,397,-4063,107,10,-34,-1.189,-2.765,-0.08358,-0.046519,9.5e-05,9.6e-05,0.0,0.03
193,352,-4109,111,-4,-55,-0.901,-2.778,-0.078561,-0.046746,9.5e-05,9.6e-05,0.0,0.03
177,261,-4110,116,9,-9,-0.609,-2.789,-0.073466,-0.046926,9.5e-05,9.6e-05,0.0,0.03
169,222,-4140,77,-7,54,-0.404,-2.769,-0.069889,-0.046578,9.5e-05,9.5e-05,0.0,0.03
171,211,-4114,61,-14,121,-0.22,-2.7,-0.066663,-0.045371,9.5e-05,9.6e-05,0.0,0.03
192,258,-4115,47,-13,126,-0.105,-2.652,-0.064657,-0.044546,9.5e-05,9.6e-05,0.0,0.03
185,274,-4117,38,-10,77,-0.029,-2.613,-0.063344,-0.043856,9.5e-05,9.6e-05,0.0,0.03
192,249,-4113,27,-9,65,0.043,-2.591,-0.062078,-0.043477,9.5e-05,9.6e-05,0.0,0.03
169,231,-4117,18,-12,93,0.099,-2.554,-0.0611,-0.042823,9.5e-05,9.6e-05,0.0,0.03
181,234,-4113,24,-13,101,0.144,-2.501,-0.060327,-0.041907,9.5e-05,9.6e-05,0.0,0.03
187,248,-4104,42,-6,76,0.21,-2.476,-0.059167,-0.041464,9.5e-05,9.6e-05,0.0,0.03
189,241,-4107,60,-7,38,0.34,-2.467,-0.05689,-0.04131,9.5e-05,9.6e-05,0.0,0.03
181,229,-4105,63,2,17,0.501,-2.461,-0.054085,-0.041201,9.5e-05,9.6e-05,0.0,0.03
170,205,-4134,23,-10,54,0.592,-2.453,-0.052492,-0.04107,9.5e-05,9.6e-05,0.0,0.03
169,205,-4112,-5,-10,95,0.593,-2.414,-0.052486,-0.040395,9.5e-05,9.6e-05,0.0,0.03
180,207,-4108,7,-10,92,0.597,-2.394,-0.052418,-0.04003,9.5e-05,9.6e-05,0.0,0.03
177,208,-4113,0,-8,102,0.609,-2.358,-0.052195,-0.039404,9.5e-05,9.6e-05,0.0,0.03
212,223,-4105,15,-6,38,0.604,-2.353,-0.052283,-0.039324,9.5e-05,9.6e-05,0.0,0.03
203,233,-4108,46,0,-70,0.673,-2.369,-0.051089,-0.039595,9.5e-05,9.6e-05,0.0,0.03
202,219,-4119,45,6,-146,0.781,-2.412,-0.049201,-0.040344,9.5e-05,9.6e-05,0.0,0.03
165,167,-4101,59,3,-107,0.933,-2.457,-0.046556,-0.041133,9.5e-05,9.6e-05,0.0,0.03
160,169,-4119,58,1,-44,1.088,-2.47,-0.043834,-0.041372,9.5e-05,9.6e-05,0.0,0.03
163,165,-4130,9,2,23,1.184,-2.473,-0.042169,-0.041412,9.5e-05,9.6e-05,0.0,0.03
186,194,-4136,-53,-4,60,1.118,-2.462,-0.043325,-0.041229,9.5e-05,9.6e-05,0.0,0.03
199,248,-4133,-132,-7,18,0.894,-2.458,-0.04723,-0.041154,9.5e-05,9.6e-05,0.0,0.03
186,199,-4084,-124,1,-43,0.559,-2.461,-0.053074,-0.041207,9.5e-05,9.6e-05,0.0,0.03
206,215,-4121,-84,8,-78,0.304,-2.501,-0.057521,-0.041907,9.5e-05,9.6e-05,0.0,0.03
185,203,-4104,-58,-1,-117,0.173,-2.534,-0.059807,-0.042489,9.5e-05,9.6e-05,0.0,0.03
163,192,-4118,-45,6,-52,0.09,-2.563,-0.061258,-0.042991,9.5e-05,9.6e-05,0.0,0.03
166,178,-4097,2,-2,10,0.069,-2.558,-0.061623,-0.042904,9.5e-05,9.6e-05,0.0,0.03
161,177,-4103,35,-5,67,0.144,-2.544,-0.060326,-0.042654,9.5e-05,9.6e-05,0.0,0.03
193,205,-4096,71,-7,88,0.311,-2.5,-0.057401,-0.041893,9.5e-05,9.6e-05,0.0,0.03
201,251,-4126,77,-1,17,0.509,-2.498,-0.05395,-0.041857,9.5e-05,9.6e-05,0.0,0.03
205,245,-4123,46,-3,-35,0.629,-2.505,-0.051855,-0.041968,9.5e-05,9.6e-05,0.0,0.03
184,182,-4121,25,2,-31,0.72,-2.522,-0.05026,-0.042276,9.5e-05,9.6e-05,0.0,0.03
170,177,-4120,19,-4,-7,0.781,-2.52,-0.049201,-0.04224,9.5e-05,9.6e-05,0.0,0.03
168,169,-4112,22,0,24,0.841,-2.51,-0.048151,-0.042069,9.5e-05,9.5e-05,0.0,0.03
184,176,-4113,20,-2,29,0.896,-2.506,-0.047188,-0.041993,9.5e-05,9.5e-05,0.0,0.03
185,198,-4120,4,-3,12,0.926,-2.5,-0.046677,-0.041892,9.5e-05,9.5e-05,0.0,0.03
189,182,-4118,-2,-3,14,0.928,-2.495,-0.046628,-0.041802,9.5e-05,9.5e-05,0.0,0.03
173,181,-4119,-12,-3,19,0.915,-2.493,-0.046854,-0.041773,9.5e-05,9.5e-05,0.0,0.03
182,178,-4122,-18,-5,28,0.887,-2.481,-0.047356,-0.041561,9.5e-05,9.5e-05,0.0,0.03
177,185,-4116,-24,-3,37,0.831,-2.472,-0.048329,-0.041404,9.5e-05,9.5e-05,0.0,0.03
180,195,-4116,-28,-5,34,0.763,-2.462,-0.04951,-0.041226,9.5e-05,9.5e-05,0.0,0.03
193,195,-4111,-25,-2,17,0.701,-2.46,-0.050603,-0.041181,9.5e-05,9.5e-05,0.0,0.03
190,200,-4108,-18,-3,-1,0.653,-2.461,-0.051437,-0.041211,9.5e-05,9.5e-05,0.0,0.03
182,201,-4117,-14,-1,-13,0.625,-2.468,-0.051922,-0.041331,9.5e-05,9.5e-05,0.0,0.03
180,202,-4118,-28,-2,0,0.583,-2.469,-0.052661,-0.041352,9.5e-05,9.5e-05,0.0,0.03
180,212,-4115,-36,-1,0,0.499,-2.468,-0.054127,-0.041337,9.5e-05,9.5e-05,0.0,0.03
183,204,-4107,-13,1,-2,0.447,-2.472,-0.055026,-0.041398,9.5e-05,9.5e-05,0.0,0.03
181,224,-4108,-9,1,-5,0.433,-2.478,-0.055281,-0.041506,9.5e-05,9.5e-05,0.0,0.03
186,238,-4118,-27,-2,-25,0.395,-2.484,-0.05593,-0.041602,9.5e-05,9.5e-05,0.0,0.03
189,233,-4128,-49,-2,-32,0.303,-2.5,-0.057551,-0.041894,9.5e-05,9.5e-05,0.0,0.03
171,228,-4117,-75,0,-11,0.137,-2.507,-0.060433,-0.042004,9.5e-05,9.5e-05,0.0,0.03
176,236,-4113,-89,-3,10,-0.032,-2.502,-0.063383,-0.04192,9.5e-05,9.5e-05,0.0,0.03
185,260,-4115,-103,-5,8,-0.286,-2.499,-0.067829,-0.041868,9.5e-05,9.5e-05,0.0,0.03
185,277,-4105,-92,-3,-16,-0.543,-2.501,-0.072302,-0.04191,9.5e-05,9.5e-05,0.0,0.03
185,267,-4095,-50,1,0,-0.659,-2.508,-0.074331,-0.042026,9.5e-05,9.5e-05,0.0,0.03
190,296,-4099,-26,-4,-16,-0.741,-2.512,-0.075763,-0.042098,9.5e-05,9.5e-05,0.0,0.03
190,342,-4120,-65,11,-64,-0.845,-2.543,-0.077571,-0.042638,9.5e-05,9.5e-05,0.0,0.03
185,333,-4113,-103,0,-68,-1.04,-2.567,-0.080986,-0.043053,9.5e-05,9.5e-05,0.0,0.03
178,369,-4069,-43,4,-44,-1.245,-2.584,-0.084559,-0.04336,9.5e-05,9.5e-05,0.0,0.03
159,390,-4081,22,-3,2,-1.264,-2.592,-0.084891,-0.043486,9.5e-05,9.5e-05,0.0,0.03
181,418,-4084,52,-4,45,-1.189,-2.569,-0.083586,-0.043087,9.5e-05,9.5e-05,0.0,0.03
172,444,-4092,51,-9,55,-1.109,-2.548,-0.082188,-0.042721,9.5e-05,9.5e-05,0.0,0.03
201,446,-4080,72,-8,20,-1.016,-2.522,-0.080567,-0.042266,9.5e-05,9.5e-05,0.0,0.03
177,406,-4083,128,2,-3,-0.799,-2.533,-0.076778,-0.04246,9.5e-05,9.5e-05,0.0,0.03
178,341,-4111,137,-1,-15,-0.484,-2.526,-0.071282,-0.042346,9.5e-05,9.5e-05,0.0,0.03
196,236,-4124,111,3,-3,-0.199,-2.541,-0.066309,-0.042601,9.5e-05,9.5e-05,0.0,0.03
145,207,-4108,117,-4,38,0.085,-2.53,-0.061344,-0.042407,9.5e-05,9.5e-05,0.0,0.03
204,193,-4096,165,-11,21,0.437,-2.504,-0.055205,-0.041955,9.5e-05,9.5e-05,0.0,0.03
213,210,-4102,162,0,0,0.809,-2.514,-0.048718,-0.042139,9.5e-05,9.5e-05,0.0,0.03
165,176,-4125,108,-6,25,1.155,-2.512,-0.042674,-0.042089,9.5e-05,9.5e-05,0.0,0.03
161,166,-4149,17,-10,102,1.277,-2.477,-0.040547,-0.041495,9.5e-05,9.5e-05,0.0,0.03
166,128,-4124,-16,-9,162,1.246,-2.445,-0.041091,-0.040931,9.5e-05,9.5e-05,0.0,0.03
148,119,-4131,-33,-15,246,1.176,-2.38,-0.042315,-0.039802,9.5e-05,9.6e-05,0.0,0.03
192,139,-4094,2,-16,231,1.152,-2.328,-0.042731,-0.038885,9.5e-05,9.6e-05,0.0,0.03
197,154,-4109,7,-10,214,1.154,-2.291,-0.042686,-0.038239,9.5e-05,9.6e-05,0.0,0.03
178,162,-4131,-9,-15,191,1.143,-2.251,-0.04288,-0.037541,9.5e-05,9.7e-05,0.0,0.03
169,165,-4142,-56,-15,202,1.047,-2.201,-0.04456,-0.036677,9.5e-05,9.7e-05,0.0,0.03
193,173,-4110,-78,-10,170,0.859,-2.171,-0.047844,-0.036153,9.5e-05,9.7e-05,0.0,0.03
205,170,-4096,-26,-11,102,0.72,-2.151,-0.050273,-0.03579,9.5e-05,9.7e-05,0.0,0.03
192,158,-4099,39,-4,49,0.767,-2.137,-0.04945,-0.035557,9.5e-05,9.7e-05,0.0,0.03
210,176,-4100,79,-3,-42,0.923,-2.162,-0.046724,-0.035982,9.5e-05,9.7e-05,0.0,0.03
205,182,-4122,51,0,-114,1.102,-2.195,-0.043598,-0.036562,9.5e-05,9.7e-05,0.0,0.03
178,155,-4133,13,-1,-89,1.161,-2.225,-0.042569,-0.037085,9.5e-05,9.7e-05,0.0,0.03
159,142,-4121,-33,5,-56,1.163,-2.236,-0.042537,-0.037272,9.5e-05,9.7e-05,0.0,0.03
179,169,-4141,-97,-2,-35,1.006,-2.252,-0.04527,-0.037566,9.5e-05,9.7e-05,0.0,0.03
179,154,-4115,-105,1,-20,0.755,-2.264,-0.049662,-0.037763,9.5e-05,9.7e-05,0.0,0.03
177,163,-4105,-60,-2,-34,0.569,-2.28,-0.052893,-0.038046,9.5e-05,9.7e-05,0.0,0.03
198,142,-4070,39,4,-67,0.595,-2.305,-0.052439,-0.038483,9.5e-05,9.6e-05,0.0,0.03
172,160,-4120,34,0,-40,0.727,-2.339,-0.050139,-0.039071,9.5e-05,9.6e-05,0.0,0.03
158,152,-4128,-14,-3,21,0.77,-2.331,-0.049401,-0.038931,9.5e-05,9.6e-05,0.0,0.03
187,168,-4116,-25,-2,9,0.717,-2.329,-0.050313,-0.038902,9.5e-05,9.6e-05,0.0,0.03
185,174,-4115,-23,0,-20,0.685,-2.34,-0.050883,-0.039103,9.5e-05,9.6e-05,0.0,0.03
175,185,-4135,-61,-5,-7,0.601,-2.349,-0.052335,-0.039252,9.5e-05,9.6e-05,0.0,0.03
183,189,-4118,-72,-1,0,0.439,-2.352,-0.055172,-0.039306,9.5e-05,9.6e-05,0.0,0.03
177,203,-4118,-87,0,2,0.275,-2.355,-0.058039,-0.039363,9.5e-05,9.6e-05,0.0,0.03
180,231,-4133,-128,-2,0,0.055,-2.355,-0.061875,-0.039358,9.5e-05,9.6e-05,0.0,0.03
182,247,-4119,-180,0,-8,-0.356,-2.358,-0.069046,-0.03941,9.5e-05,9.6e-05,0.0,0.03
192,237,-4095,-148,-3,-20,-0.727,-2.367,-0.075516,-0.03956,9.5e-05,9.6e-05,0.0,0.03
173,269,-4102,-119,-4,-12,-1.021,-2.377,-0.080659,-0.039733,9.5e-05,9.6e-05,0.0,0.03
175,276,-4085,-78,-2,0,-1.208,-2.371,-0.08392,-0.039645,9.5e-05,9.6e-05,0.0,0.03
193,278,-4087,39,-6,24,-1.212,-2.365,-0.083982,-0.039526,9.5e-05,9.6e-05,0.0,0.03
192,351,-4105,36,21,-81,-1.086,-2.413,-0.081785,-0.040375,9.5e-05,9.5e-05,0.0,0.03
181,270,-4158,-17,-4,-11,-1.04,-2.443,-0.080987,-0.040901,9.5e-05,9.5e-05,0.0,0.03
177,299,-4088,-65,0,42,-1.119,-2.429,-0.082361,-0.04065,9.5e-05,9.5e-05,0.0,0.03
141,269,-4107,-50,-18,91,-1.29,-2.419,-0.085342,-0.040474,9.5e-05,9.5e-05,0.0,0.03
255,378,-4045,12,-9,15,-1.275,-2.36,-0.085087,-0.039451,9.5e-05,9.5e-05,0.0,0.03
215,393,-4158,-41,15,-142,-1.32,-2.446,-0.085865,-0.040944,9.5e-05,9.5e-05,0.0,0.03
188,357,-4082,-90,11,-249,-1.516,-2.519,-0.089288,-0.042225,9.5e-05,9.6e-05,0.0,0.03
183,334,-4058,-38,42,-297,-1.643,-2.677,-0.091501,-0.044969,9.5e-05,9.6e-05,0.0,0.03
167,373,-4091,43,6,-206,-1.572,-2.777,-0.090274,-0.046725,9.5e-05,9.7e-05,0.0,0.03
130,447,-4004,93,12,-127,-1.405,-2.815,-0.087361,-0.047382,9.5e-05,9.7e-05,0.0,0.03
208,590,-4108,127,3,-111,-1.132,-2.856,-0.082592,-0.048093,9.5e-05,9.7e-05,0.0,0.03
140,636,-4048,45,4,-6,-1.043,-2.853,-0.081043,-0.048046,9.5e-05,9.7e-05,0.0,0.03
147,688,-4116,6,-10,9,-1.145,-2.834,-0.082809,-0.047722,9.5e-05,9.7e-05,0.0,0.03
170,558,-4045,129,-13,27,-1.09,-2.775,-0.081851,-0.04668,9.5e-05,9.7e-05,0.0,0.03
173,460,-4041,248,3,68,-0.666,-2.755,-0.074457,-0.046337,9.5e-05,9.7e-05,0.0,0.03
191,396,-4085,320,0,25,-0.088,-2.757,-0.06437,-0.04637,9.5e-05,9.7e-05,0.0,0.03
181,206,-4113,260,4,50,0.719,-2.738,-0.050285,-0.046045,9.5e-05,9.6e-05,0.0,0.03
186,220,-4140,189,-8,130,1.27,-2.719,-0.040669,-0.045708,9.5e-05,9.6e-05,0.0,0.03
134,191,-4184,-47,-7,146,1.432,-2.7,-0.037846,-0.045383,9.5e-05,9.6e-05,0.0,0.03
196,246,-4128,-144,-2,88,1.111,-2.655,-0.043436,-0.0446,9.5e-05,9.7e-05,0.0,0.03
239,244,-4138,-115,-3,-27,0.762,-2.687,-0.049536,-0.045154,9.5e-05,9.6e-05,0.0,0.03
176,118,-4125,15,-13,2,0.697,-2.678,-0.050659,-0.044988,9.5e-05,9.6e-05,0.0,0.03
180,130,-4066,69,-1,49,0.823,-2.663,-0.048472,-0.044737,9.5e-05,9.6e-05,0.0,0.03
140,124,-4070,40,-23,141,0.993,-2.594,-0.045495,-0.043535,9.5e-05,9.6e-05,0.0,0.03
181,199,-4120,18,-5,102,1.055,-2.558,-0.044413,-0.042902,9.5e-05,9.6e-05,0.0,0.03
189,150,-4136,19,-1,65,1.114,-2.527,-0.043381,-0.042363,9.5e-05,9.6e-05,0.0,0.03
207,144,-4130,17,12,-13,1.197,-2.579,-0.041948,-0.043273,9.5e-05,9.6e-05,0.0,0.03
176,91,-4093,15,0,22,1.243,-2.558,-0.041131,-0.042896,9.5e-05,9.6e-05,0.0,0.03
198,174,-4112,13,15,-28,1.272,-2.621,-0.040626,-0.044005,9.5e-05,9.6e-05,0.0,0.03
216,145,-4178,-50,2,-101,1.237,-2.628,-0.041245,-0.044125,9.5e-05,9.6e-05,0.0,0.03
228,76,-4019,26,19,-309,1.203,-2.693,-0.041844,-0.045257,9.5e-05,9.6e-05,0.0,0.03
171,-10,-4114,25,2,-185,1.363,-2.743,-0.039035,-0.046123,9.5e-05,9.7e-05,0.0,0.03
165,15,-4183,-35,18,-152,1.497,-2.767,-0.036708,-0.046546,9.5e-05,9.7e-05,0.0,0.03
156,-21,-4157,-96,-23,-32,1.371,-2.749,-0.038899,-0.046226,9.5e-05,9.7e-05,0.0,0.03
162,3,-4102,-100,9,50,1.24,-2.723,-0.041192,-0.045772,9.5e-05,9.7e-05,0.0,0.03
179,37,-4133,-95,-12,74,1.078,-2.706,-0.044023,-0.045479,9.5e-05,9.7e-05,0.0,0.03
178,111,-4119,-126,2,66,0.837,-2.669,-0.048218,-0.044833,9.5e-05,9.7e-05,0.0,0.03
192,185,-4142,-188,-11,55,0.499,-2.661,-0.05412,-0.044692,9.5e-05,9.7e-05,0.0,0.03
166,243,-4129,-251,-2,49,-0.011,-2.641,-0.063018,-0.04434,9.5e-05,9.7e-05,0.0,0.03
212,295,-4116,-281,-12,35,-0.688,-2.622,-0.07484,-0.04402,9.5e-05,9.6e-05,0.0,0.03
187,288,-4066,-191,0,-22,-1.32,-2.613,-0.08587,-0.04386,9.5e-05,9.6e-05,0.0,0.03
166,251,-4105,-64,15,-8,-1.56,-2.631,-0.090053,-0.044168,9.5e-05,9.6e-05,0.0,0.03
222,330,-4085,16,1,-27,-1.542,-2.655,-0.089742,-0.044593,9.5e-05,9.6e-05,0.0,0.03
171,322,-4095,56,15,-80,-1.375,-2.713,-0.086838,-0.045611,9.5e-05,9.6e-05,0.0,0.03
200,306,-4116,69,-8,-37,-1.196,-2.726,-0.083708,-0.045826,9.5e-05,9.6e-05,0.0,0.03
235,393,-4115,10,13,-182,-1.093,-2.776,-0.081916,-0.046701,9.5e-05,9.6e-05,0.0,0.03
175,361,-4068,-93,14,-330,-1.245,-2.878,-0.084561,-0.048485,9.5e-05,9.7e-05,0.0,0.03
162,323,-4129,-108,27,-299,-1.492,-3.008,-0.088876,-0.050752,9.5e-05,9.8e-05,0.0,0.03
168,286,-4082,6,25,-260,-1.561,-3.118,-0.090069,-0.052681,9.5e-05,9.8e-05,0.0,0.03
156,332,-4134,11,27,-182,-1.481,-3.214,-0.088688,-0.054349,9.5e-05,9.8e-05,0.0,0.03
177,332,-4081,-31,15,-162,-1.476,-3.258,-0.088587,-0.055109,9.5e-05,9.8e-05,0.0,0.03
169,345,-4127,-64,34,-139,-1.56,-3.328,-0.090064,-0.056339,9.5e-05,9.8e-05,0.0,0.03
164,352,-4078,-79,14,-102,-1.697,-3.38,-0.092442,-0.057244,9.5e-05,9.8e-05,0.0,0.03
159,334,-4052,1,2,1,-1.795,-3.37,-0.094159,-0.057076,9.5e-05,9.8e-05,0.0,0.03
228,488,-4033,54,-6,6,-1.728,-3.361,-0.092999,-0.05691,9.5e-05,9.8e-05,0.0,0.03
121,487,-4082,78,-48,210,-1.659,-3.233,-0.091789,-0.054683,9.5e-05,9.8e-05,0.0,0.03
206,866,-4049,126,-18,124,-1.523,-3.088,-0.089415,-0.052142,9.5e-05,9.8e-05,0.0,0.03
234,966,-3952,132,20,-5,-1.481,-3.112,-0.088684,-0.052576,9.5e-05,9.8e-05,0.0,0.03
167,796,-4060,111,-14,-30,-1.402,-3.102,-0.087306,-0.052393,9.5e-05,9.8e-05,0.0,0.03
159,685,-4028,230,7,-10,-1.141,-3.073,-0.082741,-0.051882,9.5e-05,9.7e-05,0.0,0.03
207,612,-4078,379,0,-47,-0.502,-3.089,-0.071601,-0.052169,9.5e-05,9.7e-05,0.0,0.03
171,444,-4031,503,-2,10,0.414,-3.078,-0.0556,-0.051969,9.5e-05,9.7e-05,0.0,0.03
170,280,-4158,271,16,43,1.492,-3.07,-0.036785,-0.05184,9.5e-05,9.7e-05,0.0,0.03
165,454,-4104,26,-13,120,1.746,-3.065,-0.03235,-0.051751,9.5e-05,9.7e-05,0.0,0.03
246,241,-4131,-188,-16,36,1.348,-3.037,-0.039299,-0.051261,9.5e-05,9.7e-05,0.0,0.03
113,95,-4184,-96,-26,114,1.04,-2.966,-0.044678,-0.050018,9.5e-05,9.7e-05,0.0,0.03
196,81,-4131,-30,1,104,0.982,-2.862,-0.045688,-0.048207,9.5e-05,9.7e-05,0.0,0.03
162,147,-4073,32,-6,116,1.025,-2.846,-0.044934,-0.047928,9.5e-05,9.7e-05,0.0,0.03
158,122,-4089,78,-4,141,1.187,-2.774,-0.042112,-0.046667,9.5e-05,9.7e-05,0.0,0.03
192,161,-4137,44,35,54,1.389,-2.797,-0.038593,-0.047065,9.5e-05,9.7e-05,0.0,0.03
78,-9,-4173,24,-13,180,1.465,-2.776,-0.037267,-0.046713,9.5e-05,9.7e-05,0.0,0.03
186,-105,-4053,-45,-2,369,1.531,-2.687,-0.036115,-0.04516,9.5e-05,9.8e-05,0.0,0.03
171,32,-4093,-29,-84,259,1.455,-2.572,-0.037434,-0.043136,9.5e-05,9.9e-05,0.0,0.03
238,-51,-4109,43,-50,288,1.496,-2.43,-0.036719,-0.040669,9.5e-05,9.9e-05,0.0,0.03
183,-181,-4105,-19,-5,252,1.687,-2.421,-0.033394,-0.040505,9.5e-05,0.0001,0.0,0.03
176,-157,-4149,-101,-15,53,1.619,-2.363,-0.034575,-0.039489,9.5e-05,0.0001,0.0,0.03
243,-165,-4151,-108,2,36,1.427,-2.384,-0.037929,-0.039858,9.5e-05,9.9e-05,0.0,0.03
120,-118,-4132,-83,-1,94,1.358,-2.386,-0.039132,-0.0399,9.5e-05,9.9e-05,0.0,0.03
163,68,-4176,-246,-3,95,1.003,-2.362,-0.045335,-0.039481,9.5e-05,9.9e-05,0.0,0.03
191,89,-4113,-302,-12,95,0.357,-2.341,-0.056595,-0.039112,9.5e-05,9.9e-05,0.0,0.03
180,207,-4102,-329,-10,96,-0.369,-2.32,-0.069274,-0.03875,9.5e-05,9.9e-05,0.0,0.03
217,324,-4093,-297,-9,-7,-1.145,-2.303,-0.082814,-0.038448,9.5e-05,9.8e-05,0.0,0.03
183,243,-4074,-141,-9,-32,-1.565,-2.313,-0.090154,-0.038629,9.5e-05,9.8e-05,0.0,0.03
227,306,-4042,-29,13,-69,-1.688,-2.36,-0.092298,-0.039442,9.5e-05,9.8e-05,0.0,0.03
150,292,-4145,54,28,-133,-1.578,-2.437,-0.090377,-0.040784,9.5e-05,9.8e-05,0.0,0.03
173,293,-4138,23,13,37,-1.46,-2.491,-0.088318,-0.041725,9.5e-05,9.8e-05,0.0,0.03
214,420,-4057,-41,6,51,-1.522,-2.481,-0.089388,-0.04156,9.5e-05,9.8e-05,0.0,0.03
187,355,-4064,-49,-5,-131,-1.697,-2.536,-0.092451,-0.042522,9.5e-05,9.8e-05,0.0,0.03
234,285,-4053,53,1,-187,-1.639,-2.587,-0.091439,-0.043411,9.5e-05,9.8e-05,0.0,0.03
153,319,-4208,79,16,-227,-1.372,-2.671,-0.086784,-0.04487,9.5e-05,9.8e-05,0.0,0.03
164,364,-4219,-19,23,-206,-1.292,-2.754,-0.085385,-0.046318,9.5e-05,9.8e-05,0.0,0.03
176,347,-4092,-100,31,-171,-1.448,-2.854,-0.088105,-0.048075,9.5e-05,9.8e-05,0.0,0.03
190,317,-4157,-61,-3,-120,-1.678,-2.904,-0.092122,-0.048941,9.5e-05,9.8e-05,0.0,0.03
213,442,-4100,-54,19,-204,-1.779,-2.972,-0.093883,-0.050126,9.5e-05,9.8e-05,0.0,0.03
192,448,-4086,-36,14,-290,-1.901,-3.067,-0.096009,-0.051781,9.5e-05,9.9e-05,0.0,0.03
216,835,-3881,134,53,-399,-1.804,-3.256,-0.094317,-0.055088,9.5e-05,0.0001,0.0,0.03
99,644,-4126,105,55,-362,-1.662,-3.431,-0.091844,-0.058135,9.5e-05,0.0001,0.0,0.03
229,790,-4081,113,44,-366,-1.508,-3.641,-0.089153,-0.061806,9.5e-05,0.000101,0.0,0.03
136,739,-4015,93,31,-311,-1.399,-3.761,-0.08725,-0.063898,9.5e-05,0.000102,0.0,0.03
73,502,-4045,107,16,-114,-1.231,-3.808,-0.084315,-0.064709,9.5e-05,0.000102,0.0,0.03
184,468,-4101,75,0,28,-1.087,-3.772,-0.081797,-0.064086,9.5e-05,0.000101,0.0,0.03
162,388,-4122,76,-5,34,-0.952,-3.712,-0.079452,-0.063048,9.5e-05,0.000101,0.0,0.03
203,317,-4133,38,3,21,-0.808,-3.654,-0.076933,-0.062025,9.5e-05,0.0001,0.0,0.03
209,309,-4082,97,-3,-26,-0.63,-3.641,-0.073819,-0.061796,9.5e-05,0.0001,0.0,0.03
176,218,-4093,105,7,-15,-0.32,-3.616,-0.068409,-0.061365,9.5e-05,0.0001,0.0,0.03
179,219,-4119,92,-3,6,-0.075,-3.593,-0.064145,-0.060964,9.5e-05,9.9e-05,0.0,0.03
192,212,-4123,61,-2,19,0.136,-3.55,-0.060456,-0.060218,9.5e-05,9.9e-05,0.0,0.03
180,255,-4133,18,-7,5,0.229,-3.514,-0.058829,-0.059581,9.5e-05,9.9e-05,0.0,0.03
201,325,-4098,31,-7,11,0.238,-3.463,-0.058671,-0.058692,9.5e-05,9.9e-05,0.0,0.03
171,344,-4072,121,-3,51,0.407,-3.432,-0.055726,-0.058154,9.5e-05,9.8e-05,0.0,0.03
150,355,-4102,145,-13,92,0.701,-3.361,-0.050595,-0.056916,9.5e-05,9.8e-05,0.0,0.03
199,338,-4109,102,-6,109,0.923,-3.304,-0.046719,-0.055923,9.5e-05,9.8e-05,0.0,0.03
225,308,-4155,-20,-4,-11,0.947,-3.298,-0.046309,-0.055819,9.5e-05,9.8e-05,0.0,0.03
182,154,-4121,-58,-4,70,0.858,-3.254,-0.047856,-0.055051,9.5e-05,9.8e-05,0.0,0.03
174,232,-4145,-111,9,68,0.692,-3.235,-0.050748,-0.054721,9.5e-05,9.8e-05,0.0,0.03
188,223,-4102,-96,-17,10,0.385,-3.173,-0.056119,-0.053638,9.5e-05,9.8e-05,0.0,0.03
221,215,-4093,-39,13,-63,0.226,-3.2,-0.058891,-0.054102,9.5e-05,9.7e-05,0.0,0.03
170,145,-4098,3,-11,-23,0.212,-3.181,-0.059132,-0.053767,9.5e-05,9.7e-05,0.0,0.03
114,88,-4105,68,-3,87,0.354,-3.14,-0.056645,-0.053054,9.5e-05,9.7e-05,0.0,0.03
196,103,-4121,118,-27,230,0.631,-3.037,-0.051816,-0.051255,9.5e-05,9.7e-05,0.0,0.03
149,157,-4133,56,-9,302,0.89,-2.953,-0.047302,-0.049796,9.5e-05,9.8e-05,0.0,0.03
194,176,-4141,-24,-26,281,0.887,-2.855,-0.047345,-0.048077,9.5e-05,9.8e-05,0.0,0.03
209,136,-4102,-24,-12,217,0.799,-2.785,-0.048895,-0.046854,9.5e-05,9.9e-05,0.0,0.03
219,165,-4093,30,-2,122,0.804,-2.747,-0.048802,-0.046198,9.5e-05,9.9e-05,0.0,0.03
172,164,-4119,52,-2,43,0.927,-2.736,-0.046645,-0.046003,9.5e-05,9.9e-05,0.0,0.03
227,150,-4122,36,-1,0,1.037,-2.737,-0.044734,-0.046027,9.5e-05,9.8e-05,0.0,0.03
173,131,-4115,30,2,-12,1.127,-2.755,-0.043162,-0.046346,9.5e-05,9.8e-05,0.0,0.03
221,183,-4090,63,6,-56,1.246,-2.776,-0.04109,-0.046706,9.5e-05,9.8e-05,0.0,0.03
178,197,-4098,114,10,-119,1.451,-2.819,-0.037512,-0.047457,9.5e-05,9.8e-05,0.0,0.03
168,198,-4118,106,-2,-66,1.719,-2.83,-0.032828,-0.047644,9.5e-05,9.8e-05,0.0,0.03
187,189,-4106,108,10,10,1.962,-2.836,-0.028595,-0.047754,9.5e-05,9.8e-05,0.0,0.03
165,177,-4111,154,-4,38,2.254,-2.837,-0.023501,-0.047772,9.5e-05,9.7e-05,0.0,0.03
296,152,-4105,209,31,-53,2.668,-2.877,-0.016263,-0.048464,9.5e-05,9.7e-05,0.0,0.03
143,121,-4164,163,-4,-153,3.141,-2.932,-0.008017,-0.049422,9.5e-05,9.7e-05,0.0,0.03
266,20,-4180,39,10,-215,3.331,-2.938,-0.004703,-0.049535,9.5e-05,9.8e-05,0.0,0.03
185,-150,-4181,-91,7,-64,3.216,-2.947,-0.00671,-0.049692,9.5e-05,9.8e-05,0.0,0.03
241,-73,-4104,-28,5,-149,3.116,-2.994,-0.008442,-0.05051,9.5e-05,9.8e-05,0.0,0.03
152,-86,-4054,58,-7,-128,3.256,-2.944,-0.006007,-0.049646,9.5e-05,9.8e-05,0.0,0.03
234,-49,-4121,-23,11,-100,3.367,-2.976,-0.004074,-0.050197,9.5e-05,9.8e-05,0.0,0.03
216,9,-4164,-108,3,-166,3.2,-2.997,-0.006981,-0.050568,9.5e-05,9.8e-05,0.0,0.03
145,-64,-4108,-21,-14,-109,3.086,-2.953,-0.00897,-0.049791,9.5e-05,9.8e-05,0.0,0.03
237,33,-4102,-16,14,-94,3.109,-2.971,-0.008572,-0.050112,9.5e-05,9.8e-05,0.0,0.03
187,10,-4142,-53,-1,-69,3.005,-2.98,-0.010393,-0.050267,9.5e-05,9.7e-05,0.0,0.03
141,34,-4095,-9,-11,-30,2.94,-2.954,-0.011516,-0.049817,9.5e-05,9.7e-05,0.0,0.03
249,71,-4109,-1,8,-17,2.974,-2.954,-0.010918,-0.049803,9.5e-05,9.7e-05,0.0,0.03
171,28,-4138,-36,-4,-3,2.917,-2.96,-0.011914,-0.049919,9.5e-05,9.7e-05,0.0,0.03
192,27,-4119,-54,-5,-11,2.825,-2.94,-0.013532,-0.049568,9.5e-05,9.7e-05,0.0,0.03
224,68,-4124,-81,-5,-40,2.657,-2.938,-0.016451,-0.049531,9.5e-05,9.7e-05,0.0,0.03
179,41,-4142,-119,-9,-24,2.425,-2.915,-0.020507,-0.049125,9.5e-05,9.7e-05,0.0,0.03
178,71,-4128,-144,-14,4,2.109,-2.877,-0.026025,-0.048469,9.5e-05,9.6e-05,0.0,0.03
214,123,-4099,-142,-4,14,1.805,-2.849,-0.031326,-0.047983,9.5e-05,9.6e-05,0.0,0.03
211,164,-4121,-138,-7,-30,1.469,-2.852,-0.037195,-0.048027,9.5e-05,9.6e-05,0.0,0.03
193,174,-4105,-116,-7,-96,1.132,-2.827,-0.04307,-0.047592,9.5e-05,9.6e-05,0.0,0.03
179,185,-4093,-74,-11,4,0.92,-2.807,-0.046767,-0.047246,9.5e-05,9.6e-05,0.0,0.03
158,255,-4120,-113,-13,81,0.702,-2.768,-0.050576,-0.046571,9.5e-05,9.6e-05,0.0,0.03
194,316,-4130,-158,-21,15,0.318,-2.71,-0.057286,-0.045548,9.5e-05,9.6e-05,0.0,0.03
194,357,-4114,-192,-8,3,-0.084,-2.681,-0.064294,-0.045043,9.5e-05,9.6e-05,0.0,0.03
211,354,-4099,-208,-10,9,-0.698,-2.667,-0.075022,-0.044797,9.5e-05,9.6e-05,0.0,0.03
225,303,-4063,-129,8,-45,-1.098,-2.691,-0.08199,-0.045229,9.5e-05,9.6e-05,0.0,0.03
146,311,-4093,-53,-1,-38,-1.232,-2.697,-0.084331,-0.045331,9.5e-05,9.6e-05,0.0,0.03
212,384,-4076,12,2,-20,-1.283,-2.701,-0.085221,-0.045402,9.5e-05,9.6e-05,0.0,0.03
151,367,-4076,103,1,16,-1.109,-2.715,-0.082188,-0.04564,9.5e-05,9.6e-05,0.0,0.03
177,372,-4112,73,-11,55,-0.895,-2.682,-0.078451,-0.045067,9.5e-05,9.6e-05,0.0,0.03
209,364,-4129,-22,-5,41,-0.861,-2.664,-0.077867,-0.044755,9.5e-05,9.6e-05,0.0,0.03
192,330,-4117,-112,3,-77,-1.096,-2.672,-0.081954,-0.044886,9.5e-05,9.6e-05,0.0,0.03
200,301,-4090,-84,14,-128,-1.303,-2.719,-0.085578,-0.045708,9.5e-05,9.6e-05,0.0,0.03
177,337,-4087,-17,14,-127,-1.378,-2.783,-0.08689,-0.046829,9.5e-05,9.6e-05,0.0,0.03
164,348,-4089,16,12,-83,-1.356,-2.831,-0.086494,-0.047669,9.5e-05,9.6e-05,0.0,0.03
164,334,-4104,60,-2,36,-1.226,-2.829,-0.084235,-0.047637,9.5e-05,9.6e-05,0.0,0.03
144,374,-4105,31,-20,139,-1.121,-2.759,-0.082392,-0.046416,9.5e-05,9.6e-05,0.0,0.03
230,443,-4104,-18,-13,131,-1.158,-2.683,-0.083049,-0.045079,9.5e-05,9.6e-05,0.0,0.03
186,395,-4079,22,-14,82,-1.219,-2.649,-0.084101,-0.04449,9.5e-05,9.6e-05,0.0,0.03
191,341,-4095,110,-5,97,-1.025,-2.609,-0.080722,-0.043796,9.5e-05,9.6e-05,0.0,0.03
206,348,-4124,38,9,6,-0.821,-2.594,-0.077159,-0.043521,9.5e-05,9.6e-05,0.0,0.03
181,353,-4106,-19,16,-43,-0.842,-2.641,-0.077529,-0.044343,9.5e-05,9.6e-05,0.0,0.03
177,330,-4085,52,-6,15,-0.831,-2.654,-0.077332,-0.044584,9.5e-05,9.6e-05,0.0,0.03
187,329,-4060,162,3,39,-0.512,-2.651,-0.071775,-0.044524,9.5e-05,9.6e-05,0.0,0.03
176,329,-4091,208,-7,79,-0.102,-2.616,-0.064619,-0.043916,9.5e-05,9.6e-05,0.0,0.03
227,341,-4097,236,2,-20,0.484,-2.628,-0.054392,-0.04413,9.5e-05,9.6e-05,0.0,0.03
217,379,-4116,198,3,-78,0.955,-2.672,-0.046158,-0.044893,9.5e-05,9.6e-05,0.0,0.03
148,235,-4126,144,-5,31,1.33,-2.666,-0.039622,-0.044779,9.5e-05,9.6e-05,0.0,0.03
238,205,-4114,92,5,-28,1.592,-2.671,-0.035052,-0.044874,9.5e-05,9.6e-05,0.0,0.03
176,199,-4131,48,-4,-80,1.732,-2.683,-0.032605,-0.04509,9.5e-05,9.6e-05,0.0,0.03
164,5,-4127,-1,-3,38,1.867,-2.654,-0.030253,-0.04457,9.5e-05,9.6e-05,0.0,0.03
174,20,-4163,-94,-15,126,1.782,-2.628,-0.031726,-0.044124,9.5e-05,9.6e-05,0.0,0.03
162,0,-4141,-150,-11,175,1.527,-2.566,-0.036189,-0.043037,9.5e-05,9.6e-05,0.0,0.03
190,49,-4135,-181,-17,186,1.152,-2.53,-0.042733,-0.042414,9.5e-05,9.6e-05,0.0,0.03
221,180,-4108,-145,-13,87,0.696,-2.484,-0.050686,-0.041607,9.5e-05,9.6e-05,0.0,0.03
203,192,-4091,-67,-2,-59,0.485,-2.493,-0.054373,-0.041759,9.5e-05,9.6e-05,0.0,0.03
212,225,-4118,-89,6,-92,0.312,-2.526,-0.057393,-0.042349,9.5e-05,9.6e-05,0.0,0.03
163,241,-4135,-169,0,-35,-0.004,-2.547,-0.062894,-0.042712,9.5e-05,9.6e-05,0.0,0.03
180,288,-4127,-201,-10,0,-0.44,-2.527,-0.070517,-0.042355,9.5e-05,9.6e-05,0.0,0.03
187,265,-4050,-91,2,25,-0.798,-2.51,-0.076758,-0.042068,9.5e-05,9.6e-05,0.0,0.03
168,363,-4076,8,10,5,-0.911,-2.548,-0.07874,-0.042731,9.5e-05,9.6e-05,0.0,0.03
200,421,-4077,129,7,0,-0.76,-2.563,-0.076099,-0.042982,9.5e-05,9.6e-05,0.0,0.03
192,405,-4047,285,4,-33,-0.287,-2.584,-0.067843,-0.043355,9.5e-05,9.6e-05,0.0,0.03
182,348,-4079,364,0,0,0.491,-2.588,-0.054264,-0.043422,9.5e-05,9.6e-05,0.0,0.03
215,404,-4126,279,3,-21,1.201,-2.619,-0.041876,-0.043973,9.5e-05,9.6e-05,0.0,0.03
159,313,-4137,184,-7,11,1.634,-2.603,-0.034319,-0.043693,9.5e-05,9.6e-05,0.0,0.03
204,185,-4132,130,-2,22,1.947,-2.606,-0.028858,-0.043739,9.5e-05,9.6e-05,0.0,0.03
154,69,-4115,53,-18,151,2.121,-2.544,-0.025818,-0.042658,9.5e-05,9.6e-05,0.0,0.03
184,-10,-4140,-64,-6,178,2.137,-2.512,-0.025536,-0.042098,9.5e-05,9.6e-05,0.0,0.03
202,-6,-4180,-167,-20,89,1.924,-2.477,-0.029248,-0.041488,9.5e-05,9.6e-05,0.0,0.03
188,-60,-4134,-207,-11,72,1.483,-2.454,-0.036943,-0.041088,9.5e-05,9.6e-05,0.0,0.03
218,-10,-4111,-205,-4,-2,1.006,-2.458,-0.045278,-0.04116,9.5e-05,9.6e-05,0.0,0.03
190,35,-4099,-170,-2,-50,0.674,-2.468,-0.051063,-0.041328,9.5e-05,9.6e-05,0.0,0.03
179,70,-4106,-138,2,-69,0.404,-2.483,-0.055787,-0.041592,9.5e-05,9.6e-05,0.0,0.03
176,143,-4139,-172,1,-32,0.109,-2.507,-0.060929,-0.042004,9.5e-05,9.6e-05,0.0,0.03
177,237,-4119,-236,3,-33,-0.424,-2.521,-0.070226,-0.042257,9.5e-05,9.6e-05,0.0,0.03
179,223,-4056,-83,-1,10,-0.737,-2.53,-0.0757,-0.042417,9.5e-05,9.6e-05,0.0,0.03
180,406,-4054,70,2,13,-0.747,-2.545,-0.075867,-0.042674,9.5e-05,9.6e-05,0.0,0.03
168,320,-4104,241,-17,132,-0.321,-2.512,-0.068431,-0.042097,9.5e-05,9.6e-05,0.0,0.03
193,352,-4063,305,0,133,0.26,-2.464,-0.058291,-0.041264,9.5e-05,9.6e-05,0.0,0.03
200,335,-4207,130,-13,110,0.859,-2.452,-0.047834,-0.041042,9.5e-05,9.6e-05,0.0,0.03
197,374,-4149,-41,-7,56,0.862,-2.41,-0.047787,-0.040317,9.5e-05,9.6e-05,0.0,0.03
230,270,-4094,-84,-2,-50,0.592,-2.434,-0.052503,-0.040741,9.5e-05,9.6e-05,0.0,0.03
174,160,-4083,8,-3,-60,0.484,-2.455,-0.054389,-0.041106,9.5e-05,9.6e-05,0.0,0.03
153,103,-4097,13,-9,42,0.581,-2.445,-0.0527,-0.040931,9.5e-05,9.6e-05,0.0,0.03
154,234,-4151,-18,6,-12,0.562,-2.438,-0.05303,-0.040814,9.5e-05,9.6e-05,0.0,0.03
228,258,-4123,26,-3,-59,0.55,-2.468,-0.053238,-0.041321,9.5e-05,9.6e-05,0.0,0.03
173,207,-4091,65,-2,10,0.671,-2.485,-0.051122,-0.041625,9.5e-05,9.6e-05,0.0,0.03
146,201,-4140,26,-9,-12,0.802,-2.455,-0.048839,-0.041095,9.5e-05,9.6e-05,0.0,0.03
238,175,-4104,0,1,-30,0.834,-2.468,-0.048273,-0.041326,9.5e-05,9.6e-05,0.0,0.03
157,185,-4099,5,-8,-9,0.854,-2.478,-0.047927,-0.041506,9.5e-05,9.5e-05,0.0,0.03
181,140,-4115,-19,-7,37,0.857,-2.451,-0.04787,-0.04103,9.5e-05,9.5e-05,0.0,0.03
162,171,-4114,-37,-5,67,0.794,-2.442,-0.048977,-0.040883,9.5e-05,9.5e-05,0.0,0.03
181,193,-4111,-42,-10,74,0.708,-2.415,-0.050474,-0.040404,9.5e-05,9.5e-05,0.0,0.03
186,207,-4099,-51,-3,70,0.591,-2.399,-0.052518,-0.040119,9.5e-05,9.5e-05,0.0,0.03
198,212,-4114,-29,-12,55,0.478,-2.398,-0.054489,-0.040102,9.5e-05,9.5e-05,0.0,0.03
191,191,-4083,-17,0,-17,0.458,-2.385,-0.054831,-0.039873,9.5e-05,9.5e-05,0.0,0.03
238,251,-4136,-69,7,-41,0.34,-2.438,-0.056894,-0.040801,9.5e-05,9.5e-05,0.0,0.03
185,271,-4144,-4,5,-33,0.184,-2.455,-0.059624,-0.0411,9.5e-05,9.5e-05,0.0,0.03
187,249,-4045,43,1,-9,0.26,-2.468,-0.058286,-0.041323,9.5e-05,9.5e-05,0.0,0.03
188,256,-4090,36,-5,-38,0.368,-2.468,-0.056404,-0.04133,9.5e-05,9.5e-05,0.0,0.03
220,235,-4108,6,5,-12,0.4,-2.489,-0.055844,-0.041693,9.5e-05,9.5e-05,0.0,0.03
116,178,-4086,32,-4,-16,0.488,-2.491,-0.054312,-0.041724,9.5e-05,9.5e-05,0.0,0.03
224,191,-4154,-33,-1,15,0.492,-2.487,-0.054251,-0.041656,9.5e-05,9.5e-05,0.0,0.03
169,119,-4156,-72,-11,58,0.362,-2.478,-0.056508,-0.04151,9.5e-05,9.5e-05,0.0,0.03
163,203,-4153,-97,-10,45,0.219,-2.433,-0.059016,-0.040711,9.5e-05,9.5e-05,0.0,0.03
239,286,-4113,-113,0,-4,-0.091,-2.452,-0.064417,-0.041046,9.5e-05,9.5e-05,0.0,0.03
170,346,-4091,-53,-6,-54,-0.303,-2.46,-0.068113,-0.041188,9.5e-05,9.5e-05,0.0,0.03
216,359,-4076,10,7,-93,-0.355,-2.483,-0.069022,-0.04159,9.5e-05,9.5e-05,0.0,0.03
187,313,-4101,46,7,-85,-0.293,-2.537,-0.067945,-0.042533,9.5e-05,9.5e-05,0.0,0.03
157,302,-4111,73,1,-62,-0.155,-2.555,-0.065534,-0.042845,9.5e-05,9.5e-05,0.0,0.03
184,296,-4093,115,3,-35,0.058,-2.57,-0.06182,-0.043111,9.5e-05,9.5e-05,0.0,0.03
165,255,-4119,144,1,-26,0.368,-2.574,-0.056409,-0.043175,9.5e-05,9.5e-05,0.0,0.03
186,243,-4123,113,1,-27,0.645,-2.581,-0.051583,-0.043298,9.5e-05,9.5e-05,0.0,0.03
165,141,-4143,4,3,49,0.808,-2.592,-0.048734,-0.0435,9.5e-05,9.5e-05,0.0,0.03
131,133,-4157,-115,-10,101,0.678,-2.552,-0.050998,-0.042791,9.5e-05,9.5e-05,0.0,0.03
258,98,-4093,-111,-5,3,0.416,-2.508,-0.055568,-0.042028,9.5e-05,9.5e-05,0.0,0.03
202,116,-4105,-104,9,-49,0.221,-2.564,-0.058966,-0.042999,9.5e-05,9.5e-05,0.0,0.03
123,121,-4156,-165,-6,-51,-0.014,-2.56,-0.063081,-0.042931,9.5e-05,9.5e-05,0.0,0.03
257,249,-4091,-174,-3,9,-0.426,-2.559,-0.070267,-0.042912,9.5e-05,9.5e-05,0.0,0.03
91,323,-4099,-88,-10,75,-0.76,-2.556,-0.076093,-0.042869,9.5e-05,9.5e-05,0.0,0.03
184,415,-4050,46,-19,124,-0.811,-2.461,-0.076982,-0.041211,9.5e-05,9.5e-05,0.0,0.03
223,444,-4099,60,4,43,-0.719,-2.451,-0.075383,-0.041036,9.5e-05,9.5e-05,0.0,0.03
218,429,-4104,24,0,-68,-0.673,-2.474,-0.074574,-0.041434,9.5e-05,9.5e-05,0.0,0.03
165,309,-4095,28,8,-35,-0.642,-2.514,-0.074038,-0.042133,9.5e-05,9.5e-05,0.0,0.03
119,292,-4116,12,-3,-25,-0.586,-2.508,-0.073061,-0.042025,9.5e-05,9.5e-05,0.0,0.03
210,271,-4116,-13,-1,-40,-0.582,-2.503,-0.072998,-0.041946,9.5e-05,9.5e-05,0.0,0.03
199,236,-4092,-13,4,9,-0.598,-2.541,-0.073264,-0.042607,9.5e-05,9.5e-05,0.0,0.03
125,270,-4102,8,-11,18,-0.588,-2.498,-0.073094,-0.04186,9.5e-05,9.5e-05,0.0,0.03
233,312,-4093,12,2,0,-0.565,-2.509,-0.072692,-0.042045,9.5e-05,9.5e-05,0.0,0.03
158,311,-4116,-7,-6,15,-0.566,-2.515,-0.07271,-0.042146,9.5e-05,9.5e-05,0.0,0.03
176,330,-4094,14,0,5,-0.577,-2.492,-0.0729,-0.041746,9.5e-05,9.5e-05,0.0,0.03
195,314,-4099,32,-1,-16,-0.525,-2.507,-0.071994,-0.042002,9.5e-05,9.5e-05,0.0,0.03
168,285,-4119,-1,-2,5,-0.467,-2.508,-0.070975,-0.042023,9.5e-05,9.5e-05,0.0,0.03
183,284,-4122,-17,-5,-10,-0.512,-2.501,-0.071768,-0.041913,9.5e-05,9.5e-05,0.0,0.03
193,269,-4092,12,4,-21,-0.503,-2.511,-0.071611,-0.042075,9.5e-05,9.5e-05,0.0,0.03
180,275,-4097,-1,-2,-9,-0.459,-2.522,-0.070845,-0.04227,9.5e-05,9.5e-05,0.0,0.03
177,305,-4062,-22,-5,0,-0.516,-2.516,-0.071839,-0.042174,9.5e-05,9.5e-05,0.0,0.03
167,310,-4031,20,-1,26,-0.52,-2.504,-0.071912,-0.041952,9.5e-05,9.5e-05,0.0,0.03
182,320,-4076,20,2,1,-0.461,-2.504,-0.070883,-0.041961,9.5e-05,9.5e-05,0.0,0.03
182,293,-4105,-20,-3,1,-0.485,-2.504,-0.071294,-0.04196,9.5e-05,9.5e-05,0.0,0.03
180,258,-4107,8,0,-42,-0.499,-2.504,-0.071544,-0.041966,9.5e-05,9.5e-05,0.0,0.03
200,252,-4115,16,6,-26,-0.426,-2.534,-0.070274,-0.042478,9.5e-05,9.5e-05,0.0,0.03
150,290,-4131,-33,-3,0,-0.443,-2.539,-0.070568,-0.042568,9.5e-05,9.5e-05,0.0,0.03
197,283,-4083,0,-3,10,-0.487,-2.518,-0.071332,-0.042203,9.5e-05,9.5e-05,0.0,0.03
176,319,-4095,25,0,0,-0.446,-2.537,-0.070613,-0.042534,9.5e-05,9.5e-05,0.0,0.03
175,321,-4106,-25,-5,-2,-0.483,-2.524,-0.07126,-0.042312,9.5e-05,9.5e-05,0.0,0.03
197,272,-4085,20,1,-16,-0.486,-2.531,-0.071314,-0.042436,9.5e-05,9.5e-05,0.0,0.03
168,272,-4113,20,1,2,-0.386,-2.535,-0.069571,-0.042491,9.5e-05,9.5e-05,0.0,0.03
179,282,-4127,-30,-7,3,-0.412,-2.524,-0.070015,-0.042302,9.5e-05,9.5e-05,0.0,0.03
193,297,-4085,-2,-2,0,-0.472,-2.515,-0.07107,-0.042144,9.5e-05,9.5e-05,0.0,0.03
181,298,-4103,26,2,-17,-0.402,-2.527,-0.069848,-0.042363,9.5e-05,9.5e-05,0.0,0.03
178,290,-4119,-16,-8,-4,-0.394,-2.525,-0.069703,-0.042324,9.5e-05,9.5e-05,0.0,0.03
195,292,-4085,-7,-2,0,-0.441,-2.521,-0.070528,-0.042247,9.5e-05,9.5e-05,0.0,0.03
175,274,-4096,25,2,-13,-0.386,-2.527,-0.069575,-0.04236,9.5e-05,9.5e-05,0.0,0.03
174,272,-4125,-13,-2,0,-0.368,-2.527,-0.069251,-0.042353,9.5e-05,9.5e-05,0.0,0.03
186,282,-4099,-29,-3,4,-0.435,-2.513,-0.070421,-0.04211,9.5e-05,9.5e-05,0.0,0.03
186,284,-4093,25,-3,-10,-0.408,-2.517,-0.069951,-0.042191,9.5e-05,9.5e-05,0.0,0.03
181,312,-4125,-17,-1,-10,-0.41,-2.528,-0.069996,-0.042384,9.5e-05,9.5e-05,0.0,0.03
170,285,-4085,-9,-6,7,-0.484,-2.511,-0.071281,-0.042084,9.5e-05,9.5e-05,0.0,0.03
194,294,-4103,28,4,-9,-0.438,-2.516,-0.070479,-0.042175,9.5e-05,9.5e-05,0.0,0.03
169,301,-4125,-32,-2,0,-0.45,-2.525,-0.070683,-0.042317,9.5e-05,9.5e-05,0.0,0.03
183,263,-4093,-1,-5,8,-0.517,-2.51,-0.071851,-0.04206,9.5e-05,9.5e-05,0.0,0.03
192,290,-4104,29,5,1,-0.446,-2.52,-0.07061,-0.042237,9.5e-05,9.5e-05,0.0,0.03
168,317,-4140,-24,-4,4,-0.459,-2.522,-0.070848,-0.042277,9.5e-05,9.5e-05,0.0,0.03
190,267,-4075,14,3,6,-0.51,-2.504,-0.071731,-0.041964,9.5e-05,9.5e-05,0.0,0.03
175,279,-4092,29,1,4,-0.43,-2.518,-0.070339,-0.042195,9.5e-05,9.5e-05,0.0,0.03
176,313,-4129,-35,-6,4,-0.463,-2.505,-0.070908,-0.041983,9.5e-05,9.5e-05,0.0,0.03
181,268,-4089,1,-1,0,-0.489,-2.502,-0.071358,-0.041927,9.5e-05,9.5e-05,0.0,0.03
182,290,-4099,12,-1,-28,-0.426,-2.518,-0.070271,-0.042209,9.5e-05,9.5e-05,0.0,0.03
174,306,-4126,-33,-6,0,-0.476,-2.523,-0.071141,-0.042283,9.5e-05,9.5e-05,0.0,0.03
169,274,-4099,17,-1,3,-0.494,-2.511,-0.071448,-0.042083,9.5e-05,9.5e-05,0.0,0.03
204,299,-4113,2,1,-20,-0.446,-2.531,-0.070621,-0.042434,9.5e-05,9.5e-05,0.0,0.03
167,309,-4139,-20,-6,11,-0.513,-2.524,-0.071777,-0.042315,9.5e-05,9.5e-05,0.0,0.03
180,281,-4093,19,0,10,-0.508,-2.513,-0.071704,-0.042123,9.5e-05,9.5e-05,0.0,0.03
188,307,-4116,-6,-1,-19,-0.461,-2.53,-0.070881,-0.042404,9.5e-05,9.5e-05,0.0,0.03
172,312,-4124,-19,-8,0,-0.522,-2.519,-0.071947,-0.042216,9.5e-05,9.5e-05,0.0,0.03
185,281,-4083,25,1,0,-0.497,-2.516,-0.071511,-0.042169,9.5e-05,9.5e-05,0.0,0.03
177,290,-4112,-11,-2,-5,-0.448,-2.521,-0.07065,-0.042254,9.5e-05,9.5e-05,0.0,0.03
176,302,-4108,-26,-5,0,-0.522,-2.507,-0.071938,-0.04201,9.5e-05,9.5e-05,0.0,0.03
184,287,-4076,23,0,-12,-0.513,-2.514,-0.071777,-0.042134,9.5e-05,9.5e-05,0.0,0.03
182,308,-4121,-5,1,-16,-0.459,-2.525,-0.070843,-0.042326,9.5e-05,9.5e-05,0.0,0.03
160,299,-4111,-16,-6,8,-0.528,-2.509,-0.072041,-0.042039,9.5e-05,9.5e-05,0.0,0.03
194,293,-4088,27,1,0,-0.499,-2.507,-0.071543,-0.042013,9.5e-05,9.5e-05,0.0,0.03
179,294,-4137,-11,0,0,-0.453,-2.523,-0.070738,-0.042288,9.5e-05,9.5e-05,0.0,0.03
177,294,-4098,-11,-6,6,-0.54,-2.496,-0.072255,-0.041819,9.5e-05,9.5e-05,0.0,0.03
197,291,-4090,35,0,0,-0.492,-2.503,-0.071423,-0.041947,9.5e-05,9.5e-05,0.0,0.03
172,306,-4136,-11,-3,0,-0.446,-2.512,-0.070615,-0.042091,9.5e-05,9.5e-05,0.0,0.03
186,300,-4105,-17,-8,15,-0.542,-2.491,-0.072291,-0.041734,9.5e-05,9.5e-05,0.0,0.03
179,294,-4087,39,2,-10,-0.482,-2.493,-0.071244,-0.041766,9.5e-05,9.5e-05,0.0,0.03
193,297,-4144,-10,-1,-14,-0.432,-2.508,-0.07038,-0.042036,9.5e-05,9.5e-05,0.0,0.03
167,282,-4097,-21,-5,10,-0.516,-2.495,-0.071839,-0.041794,9.5e-05,9.5e-05,0.0,0.03
196,292,-4084,31,1,3,-0.491,-2.492,-0.071394,-0.041746,9.5e-05,9.5e-05,0.0,0.03
173,310,-4135,-13,-5,-6,-0.439,-2.5,-0.070498,-0.041886,9.5e-05,9.5e-05,0.0,0.03
182,291,-4102,-20,-8,11,-0.514,-2.485,-0.071797,-0.04162,9.5e-05,9.5e-05,0.0,0.03
184,289,-4092,34,6,-3,-0.476,-2.489,-0.071137,-0.041695,9.5e-05,9.5e-05,0.0,0.03
177,301,-4135,-8,-6,9,-0.424,-2.491,-0.070227,-0.041736,9.5e-05,9.5e-05,0.0,0.03
174,302,-4099,-23,-8,12,-0.493,-2.475,-0.07144,-0.041458,9.5e-05,9.5e-05,0.0,0.03
194,286,-4089,32,0,0,-0.47,-2.473,-0.071027,-0.041425,9.5e-05,9.5e-05,0.0,0.03
175,300,-4136,-10,1,-8,-0.417,-2.491,-0.070104,-0.041735,9.5e-05,9.5e-05,0.0,0.03
184,297,-4092,-12,-5,3,-0.49,-2.477,-0.071392,-0.041479,9.5e-05,9.5e-05,0.0,0.03
194,286,-4095,35,2,0,-0.455,-2.486,-0.070778,-0.041652,9.5e-05,9.5e-05,0.0,0.03
172,322,-4136,-15,-4,-4,-0.417,-2.496,-0.070109,-0.04182,9.5e-05,9.5e-05,0.0,0.03
185,290,-4084,-9,-1,7,-0.497,-2.482,-0.071501,-0.04157,9.5e-05,9.5e-05,0.0,0.03
183,287,-4094,33,5,-11,-0.452,-2.488,-0.070725,-0.041675,9.5e-05,9.5e-05,0.0,0.03
176,302,-4126,-15,-3,-3,-0.42,-2.502,-0.070155,-0.041919,9.5e-05,9.5e-05,0.0,0.03
170,281,-4090,-12,-6,16,-0.492,-2.482,-0.071425,-0.041574,9.5e-05,9.5e-05,0.0,0.03
196,281,-4083,39,1,0,-0.451,-2.485,-0.070706,-0.041619,9.5e-05,9.5e-05,0.0,0.03
190,309,-4116,-9,1,-14,-0.42,-2.511,-0.07016,-0.042083,9.5e-05,9.5e-05,0.0,0.03
168,288,-4123,-16,-10,11,-0.493,-2.484,-0.071432,-0.041614,9.5e-05,9.5e-05,0.0,0.03
198,275,-4076,31,6,0,-0.45,-2.493,-0.070678,-0.041768,9.5e-05,9.5e-05,0.0,0.03
182,317,-4126,-14,-7,-6,-0.419,-2.503,-0.070151,-0.041939,9.5e-05,9.5e-05,0.0,0.03
168,293,-4109,-14,-4,6,-0.486,-2.487,-0.071316,-0.041656,9.5e-05,9.5e-05,0.0,0.03
196,281,-4101,28,1,-19,-0.442,-2.494,-0.070543,-0.04179,9.5e-05,9.5e-05,0.0,0.03
188,306,-4124,-22,0,-5,-0.433,-2.515,-0.070381,-0.042146,9.5e-05,9.5e-05,0.0,0.03
163,297,-4117,-11,-9,13,-0.503,-2.489,-0.071605,-0.041692,9.5e-05,9.5e-05,0.0,0.03
203,290,-4071,34,6,0,-0.452,-2.498,-0.070729,-0.041851,9.5e-05,9.5e-05,0.0,0.03
181,314,-4140,-24,-8,8,-0.438,-2.507,-0.070469,-0.04201,9.5e-05,9.5e-05,0.0,0.03
172,300,-4102,-8,-3,12,-0.515,-2.485,-0.071821,-0.041631,9.5e-05,9.5e-05,0.0,0.03
198,285,-4086,40,6,-13,-0.452,-2.499,-0.070723,-0.041878,9.5e-05,9.5e-05,0.0,0.03
172,285,-4134,-14,-2,-8,-0.406,-2.512,-0.069918,-0.042094,9.5e-05,9.5e-05,0.0,0.03
183,298,-4115,-17,-6,4,-0.498,-2.493,-0.071518,-0.041773,9.5e-05,9.5e-05,0.0,0.03
193,281,-4084,37,6,-5,-0.454,-2.5,-0.070748,-0.041896,9.5e-05,9.5e-05,0.0,0.03
176,306,-4137,-17,-5,-6,-0.432,-2.509,-0.070363,-0.042052,9.5e-05,9.5e-05,0.0,0.03
175,293,-4103,-15,-4,3,-0.523,-2.491,-0.071967,-0.04173,9.5e-05,9.5e-05,0.0,0.03
197,295,-4084,37,6,-7,-0.474,-2.507,-0.071099,-0.042006,9.5e-05,9.5e-05,0.0,0.03
162,307,-4138,-8,-2,0,-0.429,-2.51,-0.070311,-0.042058,9.5e-05,9.5e-05,0.0,0.03
181,292,-4110,-22,-9,13,-0.521,-2.492,-0.071921,-0.041748,9.5e-05,9.5e-05,0.0,0.03
190,289,-4080,31,6,-13,-0.488,-2.498,-0.071347,-0.041845,9.5e-05,9.5e-05,0.0,0.03
186,290,-4159,-14,-3,-3,-0.443,-2.509,-0.070571,-0.042046,9.5e-05,9.5e-05,0.0,0.03
160,293,-4097,-21,-8,4,-0.534,-2.488,-0.072144,-0.041686,9.5e-05,9.5e-05,0.0,0.03
211,297,-4096,33,6,-12,-0.498,-2.499,-0.071523,-0.041864,9.5e-05,9.5e-05,0.0,0.03
171,290,-4115,-13,-2,-11,-0.445,-2.514,-0.070605,-0.042139,9.5e-05,9.5e-05,0.0,0.03
176,296,-4110,-20,-6,5,-0.527,-2.493,-0.072032,-0.041763,9.5e-05,9.5e-05,0.0,0.03
199,282,-4078,30,2,-7,-0.501,-2.501,-0.071573,-0.041899,9.5e-05,9.5e-05,0.0,0.03
177,297,-4142,-16,0,-6,-0.459,-2.512,-0.070836,-0.042102,9.5e-05,9.5e-05,0.0,0.03
177,292,-4099,-27,-6,12,-0.543,-2.497,-0.072301,-0.04183,9.5e-05,9.5e-05,0.0,0.03
193,300,-4093,34,6,2,-0.513,-2.496,-0.071789,-0.041813,9.5e-05,9.5e-05,0.0,0.03
176,305,-4133,-9,-1,-9,-0.466,-2.506,-0.070969,-0.041993,9.5e-05,9.5e-05,0.0,0.03
180,292,-4106,-25,-5,11,-0.542,-2.491,-0.072293,-0.041726,9.5e-05,9.5e-05,0.0,0.03
189,286,-4081,29,0,0,-0.517,-2.491,-0.071854,-0.041731,9.5e-05,9.5e-05,0.0,0.03
186,308,-4140,-8,0,-11,-0.461,-2.505,-0.070879,-0.04198,9.5e-05,9.5e-05,0.0,0.03
171,282,-4090,-30,-6,0,-0.544,-2.49,-0.072335,-0.041711,9.5e-05,9.5e-05,0.0,0.03
200,291,-4088,29,1,-14,-0.533,-2.491,-0.072126,-0.041724,9.5e-05,9.5e-05,0.0,0.03
172,297,-4133,-8,2,-18,-0.467,-2.514,-0.070974,-0.042129,9.5e-05,9.5e-05,0.0,0.03
173,290,-4098,-29,-7,17,-0.546,-2.498,-0.072358,-0.041846,9.5e-05,9.5e-05,0.0,0.03
194,296,-4084,27,4,-5,-0.535,-2.495,-0.072176,-0.0418,9.5e-05,9.5e-05,0.0,0.03
173,299,-4128,11,1,-12,-0.467,-2.511,-0.070976,-0.042077,9.5e-05,9.5e-05,0.0,0.03
165,315,-4142,-18,-6,10,-0.519,-2.497,-0.071887,-0.041828,9.5e-05,9.5e-05,0.0,0.03
190,270,-4088,26,-2,3,-0.506,-2.488,-0.071663,-0.041681,9.5e-05,9.5e-05,0.0,0.03
179,291,-4113,0,2,-7,-0.437,-2.508,-0.070462,-0.042033,9.5e-05,9.5e-05,0.0,0.03
167,298,-4120,-17,-12,4,-0.495,-2.489,-0.071473,-0.041701,9.5e-05,9.5e-05,0.0,0.03
194,267,-4093,33,4,1,-0.458,-2.49,-0.070818,-0.041719,9.5e-05,9.5e-05,0.0,0.03
171,288,-4121,-5,-4,-12,-0.406,-2.497,-0.069922,-0.041842,9.5e-05,9.5e-05,0.0,0.03
185,286,-4122,-24,-3,-6,-0.471,-2.493,-0.071046,-0.041774,9.5e-05,9.5e-05,0.0,0.03
189,247,-4084,32,4,22,-0.452,-2.51,-0.070715,-0.042056,9.5e-05,9.5e-05,0.0,0.03
163,308,-4112,15,-3,23,-0.394,-2.506,-0.0697,-0.041988,9.5e-05,9.5e-05,0.0,0.03
183,285,-4112,-39,-2,21,-0.459,-2.493,-0.070849,-0.04176,9.5e-05,9.5e-05,0.0,0.03
205,273,-4086,24,3,-17,-0.486,-2.516,-0.071311,-0.042166,9.5e-05,9.5e-05,0.0,0.03
181,295,-4098,46,-2,-15,-0.38,-2.526,-0.069471,-0.042337,9.5e-05,9.5e-05,0.0,0.03
191,282,-4116,-23,-4,7,-0.338,-2.521,-0.068725,-0.042254,9.5e-05,9.5e-05,0.0,0.03
174,259,-4111,-65,-1,14,-0.464,-2.519,-0.070937,-0.042213,9.5e-05,9.5e-05,0.0,0.03
206,239,-4121,-35,-6,-15,-0.563,-2.519,-0.072651,-0.042228,9.5e-05,9.5e-05,0.0,0.03
158,311,-4115,1,6,-20,-0.588,-2.516,-0.073091,-0.042166,9.5e-05,9.5e-05,0.0,0.03
193,325,-4123,7,2,-64,-0.59,-2.529,-0.073126,-0.042397,9.5e-05,9.5e-05,0.0,0.03
225,276,-4072,17,2,-42,-0.548,-2.567,-0.072398,-0.043056,9.5e-05,9.5e-05,0.0,0.03
117,258,-4106,-6,-1,19,-0.523,-2.571,-0.07196,-0.043126,9.5e-05,9.5e-05,0.0,0.03
184,312,-4107,-34,-10,19,-0.598,-2.517,-0.073264,-0.042177,9.5e-05,9.5e-05,0.0,0.03
246,282,-4130,-38,0,9,-0.674,-2.543,-0.074594,-0.042635,9.5e-05,9.5e-05,0.0,0.03
139,301,-4113,-40,-1,0,-0.774,-2.536,-0.07634,-0.042513,9.5e-05,9.5e-05,0.0,0.03
213,294,-4097,-33,0,-9,-0.849,-2.532,-0.077652,-0.042449,9.5e-05,9.5e-05,0.0,0.03
167,316,-4111,-40,-2,16,-0.923,-2.542,-0.078949,-0.042624,9.5e-05,9.5e-05,0.0,0.03
157,219,-4125,-76,-12,68,-1.04,-2.51,-0.080986,-0.042067,9.5e-05,9.5e-05,0.0,0.03
215,276,-4108,-101,-10,69,-1.217,-2.475,-0.08407,-0.041445,9.5e-05,9.5e-05,0.0,0.03
185,317,-4108,-118,-5,12,-1.483,-2.453,-0.088718,-0.041066,9.5e-05,9.5e-05,0.0,0.03
230,407,-4102,-91,-1,-91,-1.716,-2.474,-0.092778,-0.041437,9.5e-05,9.5e-05,0.0,0.03
161,456,-4067,-4,1,-124,-1.797,-2.516,-0.094193,-0.042166,9.5e-05,9.5e-05,0.0,0.03
150,445,-4086,7,28,-103,-1.769,-2.576,-0.093708,-0.043217,9.5e-05,9.5e-05,0.0,0.03
215,451,-4116,-48,-20,-44,-1.85,-2.612,-0.095114,-0.043845,9.5e-05,9.5e-05,0.0,0.03
132,469,-4074,-22,-37,6,-1.975,-2.548,-0.097309,-0.042723,9.5e-05,9.5e-05,0.0,0.03
150,479,-4050,48,-8,0,-1.955,-2.449,-0.096946,-0.040995,9.5e-05,9.5e-05,0.0,0.03
208,417,-4105,17,64,-43,-1.88,-2.564,-0.09564,-0.043,9.5e-05,9.5e-05,0.0,0.03
182,378,-4155,-47,-17,-40,-1.953,-2.641,-0.09692,-0.044341,9.5e-05,9.5e-05,0.0,0.03
185,341,-4087,-45,-8,-83,-2.053,-2.588,-0.098668,-0.043417,9.5e-05,9.5e-05,0.0,0.03
165,354,-4097,-32,41,-101,-2.109,-2.686,-0.099633,-0.045132,9.5e-05,9.5e-05,0.0,0.03
180,383,-4120,-34,14,-113,-2.15,-2.762,-0.100361,-0.046466,9.5e-05,9.5e-05,0.0,0.03
206,389,-4100,-44,31,-141,-2.209,-2.836,-0.101382,-0.047756,9.5e-05,9.5e-05,0.0,0.03
209,433,-4055,34,29,-210,-2.211,-2.974,-0.101418,-0.050168,9.5e-05,9.6e-05,0.0,0.03
165,432,-4121,25,33,-239,-2.082,-3.089,-0.099176,-0.052175,9.5e-05,9.6e-05,0.0,0.03
193,454,-4083,-9,25,-240,-2.065,-3.211,-0.098881,-0.054302,9.5e-05,9.7e-05,0.0,0.03
166,417,-4098,-4,22,-187,-2.05,-3.292,-0.098616,-0.055715,9.5e-05,9.7e-05,0.0,0.03
151,387,-4102,-45,20,-86,-2.091,-3.351,-0.09932,-0.056748,9.5e-05,9.7e-05,0.0,0.03
171,401,-4127,-121,-19,34,-2.295,-3.322,-0.102884,-0.056227,9.5e-05,9.7e-05,0.0,0.03
174,425,-4078,-63,-35,97,-2.579,-3.197,-0.107852,-0.05406,9.5e-05,9.7e-05,0.0,0.03
182,452,-4065,-10,-20,80,-2.655,-3.099,-0.109166,-0.052345,9.5e-05,9.7e-05,0.0,0.03
185,481,-4118,-64,-30,93,-2.761,-3.025,-0.111013,-0.051048,9.5e-05,9.7e-05,0.0,0.03
179,484,-4106,-76,-59,60,-2.996,-2.871,-0.115116,-0.048368,9.5e-05,9.7e-05,0.0,0.03
177,479,-4049,-24,-46,22,-3.107,-2.734,-0.117063,-0.045973,9.5e-05,9.7e-05,0.0,0.03
151,485,-4049,-10,63,-57,-3.131,-2.752,-0.117479,-0.046292,9.5e-05,9.6e-05,0.0,0.03
195,483,-4102,-22,91,-111,-3.169,-2.989,-0.118136,-0.050429,9.5e-05,9.6e-05,0.0,0.03
210,494,-4108,18,1,-133,-3.152,-3.117,-0.117846,-0.052658,9.5e-05,9.6e-05,0.0,0.03
169,469,-4058,28,22,-130,-3.058,-3.141,-0.11621,-0.053076,9.5e-05,9.7e-05,0.0,0.03
185,487,-4089,-8,32,-92,-3.029,-3.243,-0.115701,-0.054849,9.5e-05,9.7e-05,0.0,0.03
209,512,-4120,6,-29,-83,-3.057,-3.239,-0.116194,-0.054788,9.5e-05,9.7e-05,0.0,0.03
156,471,-4058,29,-11,-10,-2.976,-3.182,-0.114772,-0.053796,9.5e-05,9.6e-05,0.0,0.03
131,496,-4092,12,-25,67,-2.933,-3.106,-0.114026,-0.052457,9.5e-05,9.6e-05,0.0,0.03
235,586,-4110,-21,-70,66,-2.996,-2.959,-0.115118,-0.049901,9.5e-05,9.6e-05,0.0,0.03
170,524,-4036,142,-80,214,-2.959,-2.691,-0.11447,-0.045226,9.5e-05,9.6e-05,0.0,0.03
29,578,-4034,187,-24,176,-2.541,-2.459,-0.107182,-0.041169,9.5e-05,9.7e-05,0.0,0.03
184,555,-4108,73,-1,115,-2.271,-2.345,-0.102472,-0.039187,9.5e-05,9.7e-05,0.0,0.03
222,449,-4126,45,-27,121,-2.201,-2.375,-0.101252,-0.03971,9.5e-05,9.7e-05,0.0,0.03
122,364,-4120,14,-37,98,-2.16,-2.286,-0.100535,-0.038149,9.5e-05,9.7e-05,0.0,0.03
155,314,-4101,-9,-25,204,-2.141,-2.154,-0.100199,-0.035843,9.5e-05,9.7e-05,0.0,0.03
123,412,-4078,12,-22,142,-2.137,-2.043,-0.100128,-0.03392,9.5e-05,9.7e-05,0.0,0.03
241,423,-4100,21,0,66,-2.117,-2.01,-0.099775,-0.033328,9.5e-05,9.7e-05,0.0,0.03
127,434,-4097,84,-9,78,-1.995,-2.018,-0.097644,-0.033476,9.5e-05,9.7e-05,0.0,0.03
121,492,-4056,149,7,85,-1.726,-1.972,-0.092963,-0.03268,9.5e-05,9.7e-05,0.0,0.03
172,470,-4081,164,18,116,-1.415,-1.993,-0.087531,-0.033043,9.5e-05,9.7e-05,0.0,0.03
130,438,-4117,86,29,70,-1.118,-2.025,-0.082344,-0.033596,9.5e-05,9.7e-05,0.0,0.03
272,471,-4082,68,66,-76,-0.999,-2.143,-0.080267,-0.035664,9.5e-05,9.7e-05,0.0,0.03
229,452,-4122,65,19,-129,-0.859,-2.319,-0.077829,-0.038722,9.5e-05,9.7e-05,0.0,0.03
141,354,-4172,-21,-6,-172,-0.879,-2.339,-0.078168,-0.039081,9.5e-05,9.7e-05,0.0,0.03
202,152,-4131,-20,37,-99,-0.93,-2.402,-0.079056,-0.040177,9.5e-05,9.7e-05,0.0,0.03
230,203,-4066,-40,30,-170,-0.959,-2.551,-0.079573,-0.042784,9.5e-05,9.7e-05,0.0,0.03
212,197,-4076,-91,-8,-262,-1.032,-2.619,-0.080846,-0.04397,9.5e-05,9.7e-05,0.0,0.03
170,165,-4118,-43,23,-256,-1.086,-2.684,-0.081785,-0.045091,9.5e-05,9.8e-05,0.0,0.03
166,242,-4113,46,47,-276,-0.985,-2.838,-0.080025,-0.047781,9.5e-05,9.8e-05,0.0,0.03
168,231,-4094,70,31,-229,-0.78,-2.945,-0.076454,-0.049648,9.5e-05,9.9e-05,0.0,0.03
196,286,-4128,45,20,-214,-0.6,-3.037,-0.073298,-0.051254,9.5e-05,9.9e-05,0.0,0.03
188,279,-4105,-2,16,-187,-0.503,-3.106,-0.071614,-0.052462,9.5e-05,9.9e-05,0.0,0.03
198,273,-4117,-14,5,-47,-0.51,-3.137,-0.071727,-0.053,9.5e-05,9.9e-05,0.0,0.03
78,274,-4105,11,-17,91,-0.509,-3.054,-0.071717,-0.051554,9.5e-05,9.9e-05,0.0,0.03
212,290,-4106,-26,-21,113,-0.523,-2.966,-0.071963,-0.050029,9.5e-05,9.9e-05,0.0,0.03
199,269,-4179,-148,-10,46,-0.766,-2.925,-0.076195,-0.049312,9.5e-05,9.8e-05,0.0,0.03
192,237,-4141,-191,-8,-18,-1.158,-2.892,-0.083045,-0.048733,9.5e-05,9.8e-05,0.0,0.03
214,242,-4084,-130,-15,-18,-1.543,-2.882,-0.089767,-0.048561,9.5e-05,9.8e-05,0.0,0.03
128,267,-4074,-56,-8,65,-1.705,-2.823,-0.092596,-0.047532,9.5e-05,9.8e-05,0.0,0.03
184,350,-4095,0,-21,162,-1.76,-2.752,-0.093547,-0.046285,9.5e-05,9.8e-05,0.0,0.03
142,413,-4109,-11,-28,226,-1.803,-2.632,-0.094293,-0.044199,9.5e-05,9.8e-05,0.0,0.03
157,384,-4099,-57,-11,272,-1.879,-2.506,-0.095625,-0.041992,9.5e-05,9.8e-05,0.0,0.03
194,363,-4138,-36,-42,360,-2.038,-2.375,-0.098408,-0.0397,9.5e-05,9.9e-05,0.0,0.03
142,375,-4092,59,-60,452,-2.044,-2.136,-0.098506,-0.035542,9.5e-05,0.0001,0.0,0.03
205,524,-4008,6,-31,367,-2.004,-1.929,-0.097808,-0.03193,9.5e-05,0.000101,0.0,0.03
335,631,-4119,-30,-41,78,-2.221,-1.879,-0.101603,-0.031047,9.5e-05,0.000101,0.0,0.03
182,582,-4071,67,-6,-82,-2.252,-1.893,-0.102142,-0.031295,9.5e-05,0.000101,0.0,0.03
179,493,-4057,156,8,-92,-1.959,-1.929,-0.097021,-0.031927,9.5e-05,0.0001,0.0,0.03
146,527,-4080,44,27,-80,-1.763,-2.017,-0.093598,-0.033451,9.5e-05,0.0001,0.0,0.03
150,462,-4111,-26,0,14,-1.827,-2.066,-0.094712,-0.034314,9.5e-05,0.0001,0.0,0.03
191,428,-4071,96,-26,11,-1.775,-2.036,-0.093812,-0.033789,9.5e-05,9.9e-05,0.0,0.03
162,401,-4086,103,16,-12,-1.478,-2.028,-0.088629,-0.033642,9.5e-05,9.9e-05,0.0,0.03
179,423,-4122,0,15,-59,-1.41,-2.104,-0.087449,-0.034983,9.5e-05,9.9e-05,0.0,0.03
224,310,-4122,-28,-1,-75,-1.466,-2.158,-0.088411,-0.03592,9.5e-05,9.9e-05,0.0,0.03
189,339,-4094,-50,21,-179,-1.53,-2.232,-0.089531,-0.037215,9.5e-05,9.9e-05,0.0,0.03
171,302,-4115,-70,41,-224,-1.628,-2.358,-0.091247,-0.039415,9.5e-05,9.9e-05,0.0,0.03
214,330,-4124,-77,17,-225,-1.789,-2.513,-0.094064,-0.042123,9.5e-05,9.9e-05,0.0,0.03
127,289,-4092,-53,21,-154,-1.868,-2.576,-0.095436,-0.043209,9.5e-05,9.9e-05,0.0,0.03
169,281,-4144,-125,25,-74,-2.024,-2.639,-0.098161,-0.044308,9.5e-05,9.9e-05,0.0,0.03
213,326,-4116,-139,-14,-27,-2.309,-2.665,-0.103134,-0.044769,9.5e-05,9.9e-05,0.0,0.03
156,392,-4095,-119,-17,8,-2.554,-2.625,-0.107414,-0.044071,9.5e-05,9.9e-05,0.0,0.03
165,474,-4082,-102,-22,82,-2.856,-2.543,-0.11267,-0.042634,9.5e-05,9.8e-05,0.0,0.03
143,470,-4062,-38,-14,104,-3.027,-2.451,-0.115668,-0.041041,9.5e-05,9.8e-05,0.0,0.03
233,591,-4045,76,-15,89,-2.988,-2.397,-0.114989,-0.040099,9.5e-05,9.8e-05,0.0,0.03
155,585,-4073,107,-18,56,-2.812,-2.371,-0.111906,-0.03963,9.5e-05,9.8e-05,0.0,0.03
209,598,-4090,2,6,-39,-2.724,-2.346,-0.110376,-0.039196,9.5e-05,9.8e-05,0.0,0.03
147,433,-4055,27,9,-8,-2.784,-2.401,-0.111427,-0.040167,9.5e-05,9.8e-05,0.0,0.03
155,429,-4105,67,-2,-10,-2.628,-2.392,-0.108706,-0.040001,9.5e-05,9.7e-05,0.0,0.03
220,424,-4106,29,10,-10,-2.496,-2.429,-0.106399,-0.040655,9.5e-05,9.7e-05,0.0,0.03
141,407,-4104,26,-23,26,-2.435,-2.424,-0.105336,-0.04056,9.5e-05,9.7e-05,0.0,0.03
181,435,-4084,21,10,-10,-2.367,-2.386,-0.10414,-0.039903,9.5e-05,9.7e-05,0.0,0.03
208,432,-4087,8,6,0,-2.34,-2.434,-0.10368,-0.040741,9.5e-05,9.7e-05,0.0,0.03
140,417,-4088,12,-14,9,-2.316,-2.393,-0.103252,-0.040012,9.5e-05,9.7e-05,0.0,0.03
185,423,-4082,22,9,4,-2.278,-2.393,-0.102599,-0.040029,9.5e-05,9.7e-05,0.0,0.03
184,424,-4102,16,-11,5,-2.229,-2.406,-0.101732,-0.040244,9.5e-05,9.6e-05,0.0,0.03
161,405,-4099,-7,-5,16,-2.23,-2.37,-0.101747,-0.039623,9.5e-05,9.6e-05,0.0,0.03
184,395,-4098,-3,-4,10,-2.234,-2.369,-0.101827,-0.039594,9.5e-05,9.6e-05,0.0,0.03
168,427,-4103,-5,-3,-6,-2.237,-2.358,-0.101877,-0.039413,9.5e-05,9.6e-05,0.0,0.03
181,418,-4097,-13,-3,-15,-2.259,-2.365,-0.102251,-0.039533,9.5e-05,9.6e-05,0.0,0.03
165,401,-4102,0,-4,-1,-2.265,-2.355,-0.102372,-0.039364,9.5e-05,9.6e-05,0.0,0.03
176,412,-4102,0,-2,12,-2.271,-2.359,-0.102473,-0.039433,9.5e-05,9.6e-05,0.0,0.03
168,421,-4101,-5,-10,9,-2.279,-2.35,-0.102606,-0.039273,9.5e-05,9.6e-05,0.0,0.03
181,421,-4098,-9,-8,2,-2.292,-2.336,-0.102837,-0.03902,9.5e-05,9.6e-05,0.0,0.03
165,419,-4084,1,3,-14,-2.3,-2.339,-0.102974,-0.03907,9.5e-05,9.6e-05,0.0,0.03
188,419,-4097,-10,0,-12,-2.305,-2.364,-0.103057,-0.039507,9.5e-05,9.6e-05,0.0,0.03
162,427,-4095,-12,-9,-5,-2.339,-2.35,-0.103648,-0.039274,9.5e-05,9.6e-05,0.0,0.03
174,443,-4079,6,6,-10,-2.343,-2.353,-0.103733,-0.039319,9.5e-05,9.6e-05,0.0,0.03
179,429,-4093,14,-2,6,-2.313,-2.37,-0.103202,-0.039613,9.5e-05,9.5e-05,0.0,0.03
156,428,-4080,27,-8,20,-2.278,-2.347,-0.102592,-0.039219,9.5e-05,9.5e-05,0.0,0.03
179,438,-4053,30,-2,28,-2.209,-2.342,-0.101378,-0.039124,9.5e-05,9.5e-05,0.0,0.03
164,424,-4117,10,-24,46,-2.162,-2.315,-0.100573,-0.038653,9.5e-05,9.5e-05,0.0,0.03
156,407,-4093,-1,-35,37,-2.156,-2.184,-0.10046,-0.036371,9.5e-05,9.5e-05,0.0,0.03
190,402,-4084,7,12,11,-2.151,-2.177,-0.100374,-0.03625,9.5e-05,9.5e-05,0.0,0.03
155,382,-4109,-13,25,-20,-2.141,-2.255,-0.100201,-0.037612,9.5e-05,9.5e-05,0.0,0.03
170,395,-4123,-72,21,-48,-2.254,-2.321,-0.102174,-0.038759,9.5e-05,9.5e-05,0.0,0.03
209,349,-4124,-134,17,-74,-2.479,-2.4,-0.106103,-0.040144,9.5e-05,9.5e-05,0.0,0.03
167,385,-4080,-129,27,-106,-2.798,-2.482,-0.111661,-0.041574,9.5e-05,9.5e-05,0.0,0.03
206,423,-4142,-131,34,-195,-3.075,-2.608,-0.116493,-0.043781,9.5e-05,9.6e-05,0.0,0.03
193,500,-4035,-72,76,-265,-3.284,-2.814,-0.120155,-0.047377,9.5e-05,9.6e-05,0.0,0.03
242,460,-4083,-19,51,-351,-3.307,-3.089,-0.120549,-0.05216,9.5e-05,9.7e-05,0.0,0.03
144,493,-4076,-80,60,-290,-3.38,-3.289,-0.12182,-0.055664,9.5e-05,9.8e-05,0.0,0.03
181,565,-4098,-97,59,-195,-3.561,-3.52,-0.124988,-0.059686,9.5e-05,9.8e-05,0.0,0.03
143,546,-4065,8,-8,14,-3.689,-3.556,-0.127221,-0.060321,9.5e-05,9.8e-05,0.0,0.03
182,588,-4152,-29,-21,42,-3.704,-3.444,-0.127483,-0.058357,9.5e-05,9.8e-05,0.0,0.03
234,190,-4120,-19,0,8,1.301,-2.924,-0.040133,-0.04928,0.130436,0.130485,3e-06,0.3
241,187,-4107,-12,-5,6,1.205,-3.084,-0.041796,-0.052075,0.090911,0.090939,3e-06,0.3
224,181,-4131,-48,17,4,1.22,-3.337,-0.041547,-0.056496,0.007483,0.007486,3e-06,0.3
205,159,-4141,-113,-17,19,0.879,-3.303,-0.047498,-0.055903,0.006013,0.006015,3e-06,0.3
237,215,-4094,-74,-5,-17,0.703,-3.256,-0.050561,-0.055084,0.005117,0.005119,3e-06,0.3
265,183,-4084,7,2,-66,0.676,-3.382,-0.051027,-0.057274,0.004336,0.004346,3e-06,0.3
175,118,-4111,32,-14,9,0.895,-3.285,-0.047206,-0.055582,0.003814,0.003825,3e-06,0.3
217,137,-4115,9,-1,81,1.019,-3.238,-0.045053,-0.054762,0.003447,0.00346,3e-06,0.3
225,155,-4124,-8,-13,85,1.049,-3.217,-0.044523,-0.054397,0.003089,0.003108,3e-06,0.3
211,166,-4115,-18,-5,102,1.041,-3.179,-0.044668,-0.053747,0.002852,0.002875,3e-06,0.3
245,180,-4113,5,-9,77,1.008,-3.175,-0.045234,-0.053664,0.002611,0.002639,3e-06,0.3
239,180,-4093,58,0,8,1.088,-3.185,-0.043836,-0.053837,0.00243,0.002454,3e-06,0.3
246,183,-4109,65,-1,-26,1.244,-3.211,-0.041114,-0.0543,0.002275,0.002296,3e-06,0.3
214,157,-4126,30,-2,-10,1.356,-3.215,-0.039173,-0.054362,0.002143,0.002161,3e-06,0.3
216,138,-4125,8,-4,13,1.399,-3.197,-0.038417,-0.054049,0.002038,0.002055,3e-06,0.3
214,130,-4116,1,-4,40,1.423,-3.181,-0.038002,-0.053769,0.001927,0.001942,3e-06,0.3
207,123,-4121,-10,-5,88,1.428,-3.152,-0.037908,-0.053262,0.001839,0.001854,3e-06,0.3
219,127,-4114,-19,-5,119,1.399,-3.122,-0.038408,-0.052739,0.001761,0.001778,3e-06,0.3
215,128,-4117,-28,-10,166,1.349,-3.089,-0.039279,-0.052171,0.001691,0.001714,3e-06,0.3
232,132,-4106,-21,-3,175,1.28,-3.067,-0.04049,-0.051782,0.001629,0.00166,3e-06,0.3
198,141,-4145,-64,-14,196,1.18,-3.015,-0.042232,-0.050873,0.001574,0.00161,3e-06,0.3
251,150,-4109,-54,-10,183,1.009,-2.983,-0.045218,-0.050322,0.001524,0.001567,3e-06,0.3
236,168,-4101,-18,-10,135,0.954,-2.972,-0.046175,-0.050118,0.001483,0.001529,3e-06,0.3
243,194,-4114,5,-5,74,0.926,-2.954,-0.046677,-0.049816,0.001437,0.001482,3e-06,0.3
245,158,-4104,36,-2,33,0.978,-2.976,-0.045759,-0.050201,0.0014,0.001441,3e-06,0.3
230,160,-4111,42,-1,10,1.096,-2.976,-0.043696,-0.050203,0.001366,0.001404,3e-06,0.3
242,152,-4116,32,-3,6,1.196,-2.993,-0.041965,-0.050491,0.001335,0.001369,3e-06,0.3
206,123,-4125,14,-3,39,1.267,-2.989,-0.04072,-0.050422,0.001307,0.001338,3e-06,0.3
227,135,-4119,-3,-4,68,1.292,-2.978,-0.040288,-0.050228,0.001281,0.00131,3e-06,0.3
215,134,-4124,-16,-8,91,1.269,-2.965,-0.04069,-0.05001,0.001257,0.001286,3e-06,0.3
233,145,-4116,-14,-5,84,1.236,-2.952,-0.041251,-0.049776,0.001238,0.001265,3e-06,0.3
249,152,-4109,7,-3,36,1.236,-2.953,-0.041262,-0.049788,0.001217,0.001243,3e-06,0.3
228,143,-4114,19,-2,13,1.281,-2.965,-0.040475,-0.050002,0.001198,0.001223,3e-06,0.3
230,132,-4114,15,-1,12,1.345,-2.969,-0.039355,-0.050071,0.00118,0.001202,3e-06,0.3
215,130,-4121,-3,-2,35,1.37,-2.972,-0.038929,-0.050131,0.001164,0.001184,3e-06,0.3
225,128,-4121,-16,-4,62,1.359,-2.961,-0.039107,-0.049936,0.00115,0.00117,3e-06,0.3
222,134,-4117,-25,-4,86,1.307,-2.952,-0.040016,-0.049783,0.001135,0.001155,3e-06,0.3
247,150,-4105,-9,-8,61,1.271,-2.94,-0.040647,-0.049563,0.001123,0.001141,3e-06,0.3
250,147,-4108,10,-1,15,1.286,-2.955,-0.040396,-0.049828,0.001111,0.001128,3e-06,0.3
218,133,-4115,19,-3,-7,1.337,-2.969,-0.039493,-0.050067,0.0011,0.001116,3e-06,0.3
228,129,-4115,13,0,3,1.393,-2.978,-0.038523,-0.05023,0.00109,0.001105,3e-06,0.3
219,124,-4122,2,-3,17,1.421,-2.982,-0.038034,-0.050297,0.001081,0.001095,3e-06,0.3
214,119,-4125,-27,-6,49,1.416,-2.974,-0.038119,-0.050162,0.001073,0.001086,3e-06,0.3
215,121,-4137,-70,-5,102,1.282,-2.959,-0.040464,-0.049891,0.001065,0.001078,3e-06,0.3
227,130,-4103,-61,-5,115,1.097,-2.935,-0.043685,-0.049485,0.001056,0.001071,3e-06,0.3
256,170,-4094,2,-4,29,1.045,-2.932,-0.044599,-0.04942,0.00105,0.001064,3e-06,0.3
268,186,-4099,13,6,-51,1.12,-2.972,-0.04329,-0.05013,0.001043,0.001057,3e-06,0.3
198,149,-4156,-46,-5,21,1.067,-2.974,-0.044203,-0.05016,0.001037,0.001049,3e-06,0.3
238,149,-4089,6,-2,-13,1.043,-2.97,-0.04463,-0.050083,0.001031,0.001043,3e-06,0.3
224,154,-4131,-15,-5,8,1.067,-2.979,-0.044216,-0.050241,0.001026,0.001037,3e-06,0.3
229,181,-4129,-44,1,-7,0.968,-2.981,-0.045939,-0.050282,0.001021,0.001031,3e-06,0.3
237,144,-4098,-20,0,-8,0.915,-2.996,-0.04687,-0.050543,0.001016,0.001026,3e-06,0.3
213,170,-4119,-32,-6,-10,0.879,-3.004,-0.047498,-0.050686,0.001012,0.00102,3e-06,0.3
235,182,-4120,-58,1,-11,0.77,-3.006,-0.049386,-0.050715,0.001007,0.001016,3e-06,0.3
237,176,-4115,-49,-6,-24,0.652,-3.018,-0.051452,-0.050935,0.001004,0.001012,3e-06,0.3
228,195,-4100,-23,4,-69,0.591,-3.034,-0.052514,-0.051201,0.001,0.001008,3e-06,0.3
235,191,-4115,-16,-2,-61,0.578,-3.064,-0.052737,-0.051726,0.000997,0.001005,3e-06,0.3
220,198,-4119,-28,-1,-50,0.543,-3.075,-0.053352,-0.05192,0.000994,0.001001,3e-06,0.3
225,213,-4121,-38,0,-29,0.456,-3.087,-0.054878,-0.052142,0.000991,0.000998,3e-06,0.3
214,209,-4110,-52,-2,16,0.358,-3.078,-0.05659,-0.051969,0.000988,0.000995,3e-06,0.3
220,236,-4121,-75,-4,29,0.219,-3.073,-0.059007,-0.051894,0.000986,0.000992,3e-06,0.3
239,259,-4120,-113,-3,8,-0.038,-3.069,-0.063501,-0.051817,0.000983,0.000989,3e-06,0.3
230,277,-4112,-143,2,-25,-0.362,-3.08,-0.069154,-0.052016,0.000981,0.000987,3e-06,0.3
226,227,-4096,-84,-4,-11,-0.622,-3.081,-0.073679,-0.052024,0.000979,0.000984,3e-06,0.3
231,272,-4088,-53,1,-18,-0.727,-3.082,-0.075512,-0.05204,0.000977,0.000982,3e-06,0.3
246,312,-4116,-66,3,-85,-0.868,-3.119,-0.077989,-0.052693,0.000975,0.00098,3e-06,0.3
250,325,-4103,-83,13,-141,-1.045,-3.178,-0.081067,-0.053713,0.000973,0.00098,3e-06,0.3
217,315,-4115,-83,14,-162,-1.205,-3.24,-0.083869,-0.054798,0.000972,0.00098,3e-06,0.3
223,299,-4085,-65,14,-149,-1.351,-3.308,-0.086409,-0.055989,0.00097,0.000981,3e-06,0.3
225,294,-4098,-38,12,-137,-1.404,-3.357,-0.087334,-0.056845,0.000969,0.000981,3e-06,0.3
219,326,-4094,-36,15,-127,-1.465,-3.404,-0.088407,-0.057658,0.000967,0.00098,3e-06,0.3
265,350,-4123,-32,11,-173,-1.525,-3.469,-0.089457,-0.058797,0.000966,0.000981,3e-06,0.3
247,378,-4086,-8,33,-280,-1.526,-3.589,-0.089467,-0.060888,0.000965,0.000984,3e-06,0.3
193,325,-4114,-42,18,-202,-1.542,-3.67,-0.089738,-0.062306,0.000964,0.000987,3e-06,0.3
222,392,-4095,-68,23,-191,-1.67,-3.754,-0.091985,-0.06377,0.000963,0.000989,3e-06,0.3
223,352,-4123,-14,22,-243,-1.709,-3.851,-0.092652,-0.065473,0.000962,0.000992,3e-06,0.3
238,364,-4101,16,22,-252,-1.652,-3.926,-0.091662,-0.06678,0.000961,0.000994,3e-06,0.3
204,321,-4112,34,20,-228,-1.49,-3.999,-0.088836,-0.068047,0.00096,0.000997,3e-06,0.3
163,360,-4163,-81,22,-146,-1.478,-4.041,-0.088622,-0.068786,0.000959,0.000997,3e-06,0.3
290,389,-4086,-132,22,-115,-1.739,-4.066,-0.093181,-0.069227,0.000959,0.000995,3e-06,0.3
219,279,-3995,-12,41,-116,-1.887,-4.184,-0.095774,-0.07128,0.000958,0.000994,3e-06,0.3
141,199,-4170,24,30,33,-1.688,-4.182,-0.092296,-0.071249,0.000957,0.000992,3e-06,0.3
316,462,-4149,-5,-13,-50,-1.599,-4.16,-0.090733,-0.070867,0.000957,0.000989,3e-06,0.3
337,336,-4073,-37,-1,-103,-1.658,-4.203,-0.091765,-0.071614,0.000956,0.000987,3e-06,0.3
161,375,-4068,-104,11,-85,-1.872,-4.193,-0.095505,-0.071432,0.000955,0.000985,3e-06,0.3
295,336,-4099,-51,34,-150,-2.032,-4.221,-0.098289,-0.071927,0.000955,0.000985,3e-06,0.3
192,351,-4113,-7,32,-88,-2.023,-4.29,-0.098135,-0.073135,0.000954,0.000983,3e-06,0.3
201,413,-4084,-12,32,-166,-2.039,-4.341,-0.098419,-0.074011,0.000954,0.000983,3e-06,0.3
273,344,-4095,-38,27,-163,-2.074,-4.43,-0.099026,-0.075565,0.000954,0.000983,3e-06,0.3
308,470,-4151,-66,-18,-328,-2.189,-4.479,-0.101034,-0.076427,0.000953,0.000988,3e-06,0.3
241,405,-4159,-16,0,-438,-2.224,-4.525,-0.101643,-0.077236,0.000953,0.000997,3e-06,0.3
93,380,-4017,-23,63,-450,-2.206,-4.762,-0.101336,-0.08137,0.000952,0.001009,3e-06,0.3
171,366,-3993,-77,98,-421,-2.216,-5.018,-0.101512,-0.085842,0.000952,0.001019,3e-06,0.3
228,455,-4035,-107,65,-466,-2.365,-5.249,-0.104103,-0.089868,0.000952,0.001029,3e-06,0.3
177,404,-4172,-90,94,-402,-2.491,-5.448,-0.106302,-0.093333,0.000952,0.001037,3e-06,0.3
236,445,-4101,-13,44,-466,-2.529,-5.704,-0.106979,-0.097812,0.000951,0.001045,3e-06,0.3
145,377,-4201,-51,38,-496,-2.467,-5.835,-0.105888,-0.100095,0.000951,0.001054,3e-06,0.3
196,434,-4043,-71,113,-468,-2.518,-6.07,-0.106777,-0.104197,0.000951,0.001063,3e-06,0.3
45,424,-4138,-121,119,-388,-2.712,-6.371,-0.110163,-0.109453,0.000951,0.001071,3e-06,0.3
266,493,-4167,-135,1,-451,-2.917,-6.586,-0.11375,-0.113198,0.00095,0.001076,3e-06,0.3
190,430,-4059,-112,123,-439,-3.091,-6.849,-0.116772,-0.117793,0.00095,0.001084,3e-06,0.3
72,467,-3863,-91,82,-465,-3.146,-7.027,-0.117744,-0.120906,0.00095,0.001091,3e-06,0.3
184,603,-3850,-61,92,-462,-3.354,-7.202,-0.121367,-0.123958,0.00095,0.001101,3e-06,0.3
6,392,-4205,-64,95,-421,-3.379,-7.311,-0.121803,-0.125864,0.00095,0.001107,3e-06,0.3
219,523,-4067,-84,127,-422,-3.419,-7.658,-0.122504,-0.131905,0.00095,0.001113,3e-06,0.3
-16,566,-4242,-147,105,-375,-3.628,-7.909,-0.126158,-0.136298,0.000949,0.001116,3e-06,0.3
371,737,-4230,-94,143,-519,-4.051,-8.192,-0.133529,-0.141241,0.000949,0.001122,3e-06,0.3
228,495,-4633,-420,17,-419,-4.399,-8.425,-0.139611,-0.145298,0.000949,0.001127,3e-06,0.3
-85,1052,-3252,-80,25,-250,-5.291,-8.413,-0.155185,-0.145087,0.000949,0.001128,3e-06,0.3
55,968,-3494,253,40,-89,-5.386,-7.99,-0.156835,-0.137705,0.000949,0.001119,3e-06,0.3
248,1412,-4188,656,231,-67,-4.176,-8.183,-0.135718,-0.141077,0.000949,0.001108,3e-06,0.3
840,4553,-1393,380,518,-3700,-5.024,-9.969,-0.150514,-0.172247,0.000949,0.001137,3e-06,0.3
-1528,-1011,-6793,-16,1169,-2648,-1.717,-13.314,-0.092798,-0.230632,0.000949,0.001165,3e-06,0.3
-358,1532,-3026,642,617,-1742,0.13,-15.285,-0.060557,-0.265036,0.000949,0.001192,3e-06,0.3
103,791,-4189,-123,77,-1144,1.03,-16.0,-0.044854,-0.27751,0.000948,0.001214,3e-06,0.3
454,1195,-3920,-320,166,-665,0.685,-16.268,-0.050877,-0.282179,0.000948,0.00123,3e-06,0.3
-464,1153,-4060,-231,-128,165,-0.454,-15.709,-0.070752,-0.272422,0.000948,0.001219,3e-06,0.3
649,1817,-3502,119,57,-31,-1.244,-15.183,-0.084544,-0.263247,0.000948,0.001202,3e-06,0.3
124,1207,-3825,416,28,81,-1.024,-14.859,-0.080709,-0.257602,0.000948,0.001185,3e-06,0.3
286,1339,-4088,512,-74,123,-0.289,-14.337,-0.067879,-0.248484,0.000948,0.00117,3e-06,0.3
183,969,-3914,530,14,145,0.416,-13.823,-0.055574,-0.239503,0.000948,0.001158,3e-06,0.3
254,1004,-4017,429,4,162,1.157,-13.459,-0.042632,-0.233167,0.000948,0.001147,3e-06,0.3
213,993,-3926,306,26,12,1.623,-13.108,-0.034501,-0.227034,0.000948,0.001135,3e-06,0.3
234,753,-4186,187,-40,80,1.764,-12.741,-0.032038,-0.22062,0.000948,0.001122,3e-06,0.3
294,615,-4030,160,13,127,1.896,-12.458,-0.029747,-0.215696,0.000948,0.001113,3e-06,0.3
171,495,-3987,47,-11,138,1.947,-12.127,-0.02885,-0.209912,0.000948,0.001105,3e-06,0.3
297,510,-3985,60,-35,158,1.755,-11.69,-0.032207,-0.202287,0.000948,0.001097,3e-06,0.3
190,413,-4039,93,-32,230,1.691,-11.386,-0.033313,-0.196973,0.000948,0.001092,3e-06,0.3
125,523,-4104,188,-37,278,1.697,-11.039,-0.03322,-0.190923,0.000948,0.00109,3e-06,0.3
155,403,-4030,180,-73,371,1.897,-10.756,-0.02972,-0.18599,0.000948,0.001092,3e-06,0.3
280,481,-4236,195,-39,403,2.155,-10.435,-0.025219,-0.180385,0.000948,0.001096,3e-06,0.3
167,509,-4014,179,7,341,2.276,-10.177,-0.023108,-0.175875,0.000948,0.001098,3e-06,0.3
247,351,-4168,207,-31,234,2.518,-9.883,-0.018884,-0.170754,0.000948,0.001096,3e-06,0.3
305,291,-4028,232,-85,91,2.875,-9.674,-0.012662,-0.167093,0.000948,0.001089,3e-06,0.3
200,243,-4184,119,37,-81,3.22,-9.434,-0.006636,-0.162915,0.000948,0.00108,3e-06,0.3
457,162,-4320,-31,-48,-170,3.371,-9.241,-0.003999,-0.159532,0.000948,0.001075,3e-06,0.3
203,99,-4070,-120,50,-277,3.254,-8.989,-0.006045,-0.155144,0.000947,0.001074,3e-06,0.3
194,-32,-4216,-52,38,-199,3.141,-8.918,-0.008013,-0.153901,0.000947,0.001073,3e-06,0.3
323,-155,-4152,-235,-65,15,2.872,-8.767,-0.012712,-0.151276,0.000947,0.001066,3e-06,0.3
214,-93,-4134,-151,34,176,2.364,-8.586,-0.021565,-0.148106,0.000947,0.00106,3e-06,0.3
100,-10,-4053,235,-27,265,2.568,-8.441,-0.018012,-0.145582,0.000947,0.00106,3e-06,0.3
131,166,-4052,212,-35,246,3.017,-8.105,-0.010181,-0.139721,0.000947,0.00106,3e-06,0.3
428,439,-4125,187,14,110,3.197,-8.074,-0.007032,-0.139164,0.000947,0.001057,3e-06,0.3
192,148,-4223,-51,-53,34,3.15,-7.894,-0.007857,-0.136028,0.000947,0.001052,3e-06,0.3
364,125,-4194,-107,-52,-2,2.745,-7.578,-0.014921,-0.130514,0.000947,0.001044,3e-06,0.3
190,-51,-3985,-69,30,-97,2.589,-7.474,-0.017644,-0.128709,0.000947,0.001039,3e-06,0.3
246,-251,-4177,-74,-45,-119,2.571,-7.279,-0.01796,-0.125296,0.000947,0.001035,3e-06,0.3
168,-239,-4222,-4,10,172,2.579,-7.124,-0.01782,-0.122586,0.000947,0.00103,3e-06,0.3
187,54,-4231,25,-14,208,2.703,-6.956,-0.015656,-0.119652,0.000947,0.00103,3e-06,0.3
325,368,-4056,-51,-16,7,2.582,-6.779,-0.01776,-0.116569,0.000947,0.001028,3e-06,0.3
375,-29,-4028,-197,73,-171,2.2,-6.916,-0.024438,-0.118962,0.000947,0.001025,3e-06,0.3
148,171,-4069,124,-25,-43,2.169,-6.833,-0.024984,-0.117509,0.000947,0.001022,3e-06,0.3
99,193,-4135,23,-60,-51,2.349,-6.522,-0.021839,-0.112077,0.000947,0.001017,3e-06,0.3
36,568,-4067,537,-200,11,2.454,-6.333,-0.020002,-0.108791,0.000947,0.001013,3e-06,0.3
528,175,-3852,-74,190,154,2.711,-6.349,-0.015517,-0.109072,0.000947,0.001013,3e-06,0.3
11,-50,-4201,-199,-41,47,2.356,-6.187,-0.021713,-0.10623,0.000947,0.00101,3e-06,0.3
260,317,-4328,-77,-64,22,1.835,-5.992,-0.030805,-0.102838,0.000947,0.001006,3e-06,0.3
200,30,-4165,-110,0,119,1.588,-5.836,-0.035118,-0.100107,0.000947,0.001003,3e-06,0.3
124,306,-4027,49,83,202,1.456,-5.75,-0.037424,-0.098619,0.000947,0.001003,3e-06,0.3
202,149,-4119,92,9,203,1.506,-5.746,-0.036552,-0.098547,0.000947,0.001005,3e-06,0.3
333,82,-4262,-6,-9,14,1.788,-5.712,-0.031618,-0.097945,0.000947,0.001004,3e-06,0.3
323,177,-4216,-105,-32,-66,1.695,-5.596,-0.033241,-0.095922,0.000947,0.001,3e-06,0.3
261,241,-3921,-169,27,-180,1.354,-5.629,-0.039208,-0.096493,0.000947,0.000999,3e-06,0.3
130,135,-4121,-130,27,-91,1.033,-5.637,-0.044796,-0.096642,0.000947,0.000998,3e-06,0.3
410,129,-4260,-112,6,-42,0.826,-5.541,-0.048421,-0.094965,0.000947,0.000995,3e-06,0.3
221,244,-4047,-90,18,18,0.563,-5.476,-0.053011,-0.093825,0.000947,0.000992,3e-06,0.3
178,403,-3986,130,-73,-48,0.609,-5.368,-0.052203,-0.091947,0.000947,0.000989,3e-06,0.3
298,373,-4171,121,-84,-73,0.871,-5.366,-0.047628,-0.091916,0.000947,0.000987,3e-06,0.3
143,308,-4314,95,38,-35,1.083,-5.396,-0.043927,-0.092436,0.000947,0.000985,3e-06,0.3
224,329,-4069,-1,-2,15,1.124,-5.327,-0.043216,-0.091234,0.000947,0.000983,3e-06,0.3
355,303,-4196,-59,-39,132,0.989,-5.185,-0.045575,-0.088758,0.000947,0.000981,3e-06,0.3
137,193,-4215,-21,-30,236,0.847,-4.968,-0.04804,-0.084961,0.000947,0.000984,3e-06,0.3
255,219,-4208,90,-19,174,0.866,-4.86,-0.047713,-0.083073,0.000947,0.000986,3e-06,0.3
246,150,-4021,152,-14,140,1.201,-4.775,-0.041874,-0.081596,0.000947,0.000986,3e-06,0.3
213,191,-4118,41,-23,145,1.393,-4.67,-0.038525,-0.079769,0.000947,0.000986,3e-06,0.3
262,211,-4115,-93,-29,255,1.231,-4.519,-0.041348,-0.077128,0.000947,0.000987,3e-06,0.3
111,98,-4243,-168,-23,386,0.91,-4.4,-0.046952,-0.075052,0.000947,0.000993,3e-06,0.3
292,126,-4234,-191,-73,426,0.373,-4.171,-0.056319,-0.071051,0.000947,0.001004,3e-06,0.3
226,214,-4020,-184,-16,300,-0.118,-4.021,-0.064885,-0.06843,0.000947,0.001011,3e-06,0.3
296,335,-4076,-162,-24,112,-0.613,-3.943,-0.073533,-0.067071,0.000947,0.001011,3e-06,0.3
276,395,-4001,-22,19,-85,-0.869,-3.952,-0.077995,-0.067227,0.000947,0.001008,3e-06,0.3
235,384,-4062,31,11,-116,-0.83,-3.957,-0.07731,-0.067318,0.000947,0.001005,3e-06,0.3
174,360,-3964,22,-6,-39,-0.702,-3.944,-0.075078,-0.067089,0.000947,0.001002,3e-06,0.3
151,377,-4069,33,-39,34,-0.726,-3.914,-0.075497,-0.066575,0.000947,0.000999,3e-06,0.3
277,325,-4125,22,-24,-2,-0.674,-3.905,-0.074588,-0.066409,0.000947,0.000995,3e-06,0.3
128,346,-3966,-38,8,74,-0.652,-3.835,-0.074219,-0.06519,0.000947,0.000993,3e-06,0.3
254,411,-3851,41,1,32,-0.649,-3.757,-0.074165,-0.063821,0.000947,0.00099,3e-06,0.3
193,353,-3975,51,-5,58,-0.571,-3.742,-0.07279,-0.063564,0.000947,0.000988,3e-06,0.3
172,332,-4057,32,14,44,-0.473,-3.676,-0.07108,-0.06241,0.000947,0.000986,3e-06,0.3
221,294,-4001,39,-12,33,-0.408,-3.641,-0.069958,-0.061806,0.000947,0.000984,3e-06,0.3
187,286,-4086,51,2,26,-0.288,-3.607,-0.067854,-0.061213,0.000947,0.000981,3e-06,0.3
243,323,-4134,57,-7,-4,-0.159,-3.582,-0.065607,-0.06078,0.000947,0.000979,3e-06,0.3
197,291,-4127,60,2,-11,-0.043,-3.578,-0.063582,-0.060702,0.000947,0.000977,3e-06,0.3
225,268,-4138,51,-10,-3,0.098,-3.549,-0.061124,-0.060204,0.000947,0.000975,3e-06,0.3
213,260,-4128,29,3,3,0.184,-3.539,-0.059624,-0.060016,0.000947,0.000974,3e-06,0.3
220,257,-4123,17,-6,6,0.228,-3.512,-0.058851,-0.059545,0.000947,0.000972,3e-06,0.3
213,257,-4107,3,7,-3,0.248,-3.495,-0.058503,-0.059262,0.000947,0.00097,3e-06,0.3
236,242,-4142,6,-1,-2,0.267,-3.494,-0.058168,-0.059243,0.000947,0.000969,3e-06,0.3
227,242,-4129,-18,0,-18,0.25,-3.478,-0.058468,-0.058965,0.000947,0.000968,3e-06,0.3
205,235,-4155,-74,1,-7,0.142,-3.477,-0.060356,-0.058935,0.000947,0.000966,3e-06,0.3
222,244,-4123,-119,-2,-6,-0.097,-3.453,-0.064525,-0.058517,0.000947,0.000965,3e-06,0.3
219,256,-4121,-156,0,5,-0.441,-3.448,-0.07053,-0.058438,0.000947,0.000964,3e-06,0.3
230,300,-4093,-127,4,-70,-0.763,-3.442,-0.076156,-0.058331,0.000947,0.000963,3e-06,0.3
238,288,-4094,-92,22,-124,-0.983,-3.486,-0.079983,-0.059089,0.000947,0.000963,3e-06,0.3
184,292,-4105,-99,20,-89,-1.151,-3.551,-0.082926,-0.06023,0.000947,0.000964,3e-06,0.3
253,319,-4262,-138,-33,-32,-1.477,-3.499,-0.088608,-0.059331,0.000947,0.000963,3e-06,0.3
193,331,-4103,-91,13,-37,-1.727,-3.495,-0.092979,-0.059254,0.000947,0.000962,3e-06,0.3
262,324,-4167,93,24,30,-1.684,-3.526,-0.092231,-0.0598,0.000947,0.000961,3e-06,0.3
244,350,-4138,119,16,-104,-1.43,-3.568,-0.087792,-0.060534,0.000947,0.000961,3e-06,0.3
244,342,-4165,-1,40,15,-1.253,-3.702,-0.084696,-0.062866,0.000947,0.000961,3e-06,0.3
338,447,-4353,-96,-66,61,-1.455,-3.668,-0.088219,-0.062268,0.000947,0.00096,3e-06,0.3
144,311,-3991,-39,-47,43,-1.632,-3.56,-0.091319,-0.060392,0.000947,0.00096,3e-06,0.3
234,307,-3775,86,26,43,-1.537,-3.556,-0.089666,-0.060318,0.000947,0.000959,3e-06,0.3
259,354,-4101,139,25,67,-1.201,-3.58,-0.08379,-0.060742,0.000947,0.000959,3e-06,0.3
239,545,-4234,75,36,217,-0.985,-3.499,-0.080025,-0.059329,0.000947,0.00096,3e-06,0.3
181,686,-4082,55,51,43,-0.911,-3.462,-0.078735,-0.058685,0.000947,0.00096,3e-06,0.3
336,434,-4011,105,-18,50,-0.747,-3.421,-0.075868,-0.057971,0.000947,0.00096,3e-06,0.3
243,460,-4096,124,2,-48,-0.511,-3.415,-0.071754,-0.057862,0.000947,0.000959,3e-06,0.3
245,410,-4126,138,7,-78,-0.228,-3.44,-0.066808,-0.058293,0.000947,0.000959,3e-06,0.3
198,349,-4118,114,9,-59,0.011,-3.455,-0.062647,-0.058557,0.000947,0.000959,3e-06,0.3
268,297,-4109,105,16,-50,0.23,-3.47,-0.058822,-0.05882,0.000947,0.000958,3e-06,0.3
227,249,-4135,69,2,-39,0.47,-3.497,-0.054637,-0.059283,0.000947,0.000958,3e-06,0.3
309,204,-4152,87,-51,36,0.662,-3.429,-0.051278,-0.058095,0.000947,0.000957,3e-06,0.3
155,201,-4032,60,1,59,0.863,-3.327,-0.047768,-0.056315,0.000947,0.000957,3e-06,0.3
196,217,-4171,74,29,62,1.069,-3.326,-0.04417,-0.056312,0.000947,0.000957,3e-06,0.3
336,216,-4123,60,-9,53,1.194,-3.31,-0.041992,-0.056028,0.000947,0.000956,3e-06,0.3
164,202,-4216,87,-3,11,1.352,-3.292,-0.039241,-0.055714,0.000947,0.000956,3e-06,0.3
319,180,-4108,29,-21,-8,1.459,-3.307,-0.037367,-0.05597,0.000947,0.000955,3e-06,0.3
145,172,-3999,-26,-42,123,1.349,-3.283,-0.039285,-0.055556,0.000947,0.000955,3e-06,0.3
169,192,-4005,-45,1,155,1.116,-3.231,-0.043357,-0.054643,0.000947,0.000958,3e-06,0.3
299,209,-4027,-22,-15,98,0.991,-3.262,-0.045532,-0.055182,0.000947,0.000959,3e-06,0.3
266,221,-4139,-11,-42,3,0.843,-3.25,-0.04812,-0.054975,0.000947,0.000958,3e-06,0.3
159,196,-3959,-3,40,-80,0.801,-3.266,-0.048856,-0.055257,0.000947,0.000958,3e-06,0.3
304,173,-4074,11,26,-165,0.898,-3.306,-0.047158,-0.055949,0.000947,0.000959,3e-06,0.3
165,148,-4157,-17,14,-113,0.913,-3.327,-0.046903,-0.056313,0.000947,0.00096,3e-06,0.3
249,129,-4137,-3,-12,-36,0.925,-3.308,-0.046689,-0.055993,0.000947,0.00096,3e-06,0.3
182,150,-4112,4,9,20,0.953,-3.313,-0.04619,-0.056082,0.000947,0.000959,3e-06,0.3
228,180,-4128,-8,-18,37,0.956,-3.275,-0.046153,-0.055422,0.000947,0.000959,3e-06,0.3
253,192,-4109,-35,8,15,0.89,-3.282,-0.047298,-0.055536,0.000947,0.000958,3e-06,0.3
213,186,-4120,-32,-11,1,0.806,-3.271,-0.048765,-0.055338,0.000947,0.000957,3e-06,0.3
226,190,-4110,-31,10,-17,0.737,-3.275,-0.049961,-0.055414,0.000947,0.000957,3e-06,0.3
235,199,-4127,-43,-9,-18,0.666,-3.28,-0.051211,-0.055493,0.000947,0.000956,3e-06,0.3
221,206,-4109,-58,6,-15,0.53,-3.28,-0.05358,-0.055497,0.000947,0.000956,3e-06,0.3
235,205,-4119,-45,-4,-17,0.416,-3.274,-0.055568,-0.055401,0.000947,0.000955,3e-06,0.3
239,232,-4107,-52,5,-33,0.32,-3.291,-0.057245,-0.055698,0.000947,0.000955,3e-06,0.3
218,241,-4115,-93,-2,-30,0.147,-3.297,-0.060261,-0.055803,0.000947,0.000954,3e-06,0.3
220,253,-4128,-166,-1,-15,-0.168,-3.295,-0.06577,-0.055764,0.000947,0.000954,3e-06,0.3
241,254,-4091,-163,0,-13,-0.58,-3.295,-0.072962,-0.055772,0.000947,0.000954,3e-06,0.3
248,277,-4101,-105,-2,-80,-0.843,-3.305,-0.077538,-0.055935,0.000947,0.000954,3e-06,0.3
244,291,-4078,-36,16,-164,-0.99,-3.359,-0.08011,-0.056884,0.000947,0.000955,3e-06,0.3
280,304,-4141,-76,13,-212,-1.051,-3.444,-0.081173,-0.058371,0.000947,0.000958,3e-06,0.3
236,288,-4055,-98,39,-231,-1.183,-3.51,-0.083487,-0.059511,0.000947,0.000961,3e-06,0.3
166,276,-3878,-94,36,-176,-1.307,-3.616,-0.085651,-0.061373,0.000947,0.000965,3e-06,0.3
302,368,-4038,-64,36,-148,-1.444,-3.687,-0.088033,-0.062598,0.000947,0.000966,3e-06,0.3
137,264,-4157,32,28,2,-1.382,-3.742,-0.086956,-0.063561,0.000947,0.000966,3e-06,0.3
237,357,-4110,-30,-13,101,-1.383,-3.705,-0.086969,-0.062913,0.000947,0.000965,3e-06,0.3
330,372,-4002,-9,20,44,-1.442,-3.662,-0.087997,-0.062163,0.000947,0.000965,3e-06,0.3
209,442,-4221,-13,-61,-105,-1.538,-3.652,-0.089669,-0.061997,0.000947,0.000964,3e-06,0.3
332,411,-3858,30,23,-266,-1.469,-3.699,-0.088475,-0.062807,0.000947,0.000966,3e-06,0.3
189,454,-4150,19,-2,-358,-1.339,-3.903,-0.08621,-0.066366,0.000947,0.000976,3e-06,0.3
209,361,-4065,46,27,-280,-1.164,-4.038,-0.083149,-0.068733,0.000947,0.000982,3e-06,0.3
320,497,-4020,22,19,-328,-1.078,-4.146,-0.081652,-0.070619,0.000947,0.000987,3e-06,0.3
133,546,-4281,-119,20,-377,-1.304,-4.305,-0.085586,-0.073387,0.000947,0.000994,3e-06,0.3
292,483,-4063,-144,37,-409,-1.679,-4.439,-0.092141,-0.075735,0.000947,0.001002,3e-06,0.3
260,436,-4134,-52,72,-508,-1.798,-4.698,-0.094204,-0.080254,0.000947,0.001013,3e-06,0.3
186,474,-4060,25,70,-575,-1.708,-4.975,-0.092651,-0.085091,0.000947,0.001027,3e-06,0.3
312,480,-4023,23,81,-651,-1.531,-5.292,-0.089559,-0.090612,0.000947,0.001043,3e-06,0.3
189,480,-4106,-14,81,-641,-1.448,-5.574,-0.088097,-0.095539,0.000947,0.001057,3e-06,0.3
227,473,-4138,-1,78,-674,-1.371,-5.878,-0.086769,-0.100849,0.000947,0.001072,3e-06,0.3
234,450,-4074,-33,99,-638,-1.226,-6.251,-0.084235,-0.107363,0.000947,0.001089,3e-06,0.3
167,472,-4128,-118,76,-531,-1.323,-6.516,-0.085926,-0.111973,0.000947,0.001101,3e-06,0.3
193,469,-4057,-110,75,-499,-1.523,-6.736,-0.089419,-0.115826,0.000947,0.001111,3e-06,0.3
291,500,-4034,-42,66,-536,-1.611,-6.97,-0.090946,-0.119904,0.000947,0.00112,3e-06,0.3
243,549,-4113,-42,90,-598,-1.608,-7.203,-0.090894,-0.123973,0.000947,0.001129,3e-06,0.3
164,524,-4160,-109,110,-556,-1.697,-7.541,-0.092448,-0.129879,0.000947,0.001141,3e-06,0.3
292,518,-4100,-87,82,-553,-1.848,-7.771,-0.095088,-0.133885,0.000947,0.001149,3e-06,0.3
191,449,-4041,-16,104,-528,-1.794,-8.085,-0.094148,-0.139359,0.000947,0.001159,3e-06,0.3
151,435,-4072,23,57,-404,-1.697,-8.277,-0.09245,-0.142717,0.000947,0.001164,3e-06,0.3
184,399,-4124,22,35,-187,-1.548,-8.267,-0.08985,-0.142543,0.000947,0.001159,3e-06,0.3
130,424,-4139,-24,26,-23,-1.501,-8.17,-0.089036,-0.140849,0.000947,0.001147,3e-06,0.3
376,570,-4125,-178,1,-71,-1.837,-8.023,-0.094898,-0.138283,0.000947,0.001133,3e-06,0.3
202,540,-4234,-101,43,-125,-2.177,-7.972,-0.100836,-0.137399,0.000947,0.001123,3e-06,0.3
272,545,-4175,-29,75,-119,-2.264,-7.888,-0.10234,-0.135928,0.000947,0.001112,3e-06,0.3
309,487,-3938,1,65,-161,-2.187,-7.909,-0.101004,-0.136285,0.000947,0.001107,3e-06,0.3
196,544,-3915,-13,75,-167,-2.141,-7.952,-0.100201,-0.137052,0.000947,0.001099,3e-06,0.3
210,566,-4302,-37,-32,-169,-2.157,-7.949,-0.100479,-0.136983,0.000947,0.001093,3e-06,0.3
198,644,-4037,-48,45,-194,-2.177,-7.913,-0.10082,-0.13636,0.000947,0.001086,3e-06,0.3
252,501,-3856,-29,26,-95,-2.223,-7.879,-0.101638,-0.135768,0.000947,0.001078,3e-06,0.3
267,603,-4242,-9,-1,9,-2.216,-7.843,-0.101505,-0.135139,0.000947,0.001071,3e-06,0.3
188,551,-3884,-33,29,9,-2.196,-7.745,-0.101167,-0.133433,0.000947,0.001064,3e-06,0.3
296,704,-4065,50,-13,-139,-2.146,-7.619,-0.100294,-0.131232,0.000947,0.001058,3e-06,0.3
341,632,-4011,20,30,-172,-2.106,-7.654,-0.099588,-0.13184,0.000947,0.001054,3e-06,0.3
185,582,-4044,-4,10,-209,-1.904,-7.684,-0.09607,-0.132371,0.000947,0.00105,3e-06,0.3
377,894,-4211,23,6,-275,-1.854,-7.674,-0.095191,-0.132195,0.000947,0.00105,3e-06,0.3
55,589,-3807,-79,74,-161,-1.968,-7.667,-0.09718,-0.132064,0.000947,0.001047,3e-06,0.3
148,567,-3919,49,90,-16,-1.934,-7.621,-0.096592,-0.131274,0.000947,0.001042,3e-06,0.3
481,746,-4391,56,28,10,-1.854,-7.582,-0.095185,-0.130588,0.000947,0.001036,3e-06,0.3
206,662,-3922,74,10,21,-1.768,-7.484,-0.093682,-0.128871,0.000947,0.001031,3e-06,0.3
211,584,-4075,97,21,44,-1.619,-7.35,-0.091083,-0.126539,0.000947,0.001026,3e-06,0.3
364,652,-4097,102,4,74,-1.527,-7.255,-0.089483,-0.124873,0.000947,0.001021,3e-06,0.3
264,697,-4054,66,-9,8,-1.464,-7.102,-0.088379,-0.122209,0.000947,0.001016,3e-06,0.3
316,628,-3968,65,-1,-80,-1.366,-6.982,-0.086667,-0.120105,0.000947,0.001012,3e-06,0.3
254,651,-3993,81,30,-99,-1.299,-6.91,-0.085512,-0.118865,0.000947,0.001009,3e-06,0.3
221,553,-4184,100,31,-26,-1.107,-6.84,-0.08216,-0.117639,0.000947,0.001006,3e-06,0.3
394,628,-4108,132,-10,-122,-0.946,-6.783,-0.079348,-0.116647,0.000947,0.001004,3e-06,0.3
242,568,-4144,156,-2,-177,-0.619,-6.69,-0.07364,-0.115013,0.000947,0.001002,3e-06,0.3
179,612,-4109,95,31,-165,-0.417,-6.689,-0.070112,-0.115001,0.000947,0.001002,3e-06,0.3
325,528,-4159,27,-3,-52,-0.391,-6.592,-0.069659,-0.113298,0.000947,0.000999,3e-06,0.3
296,593,-4053,6,6,-113,-0.474,-6.516,-0.071101,-0.111989,0.000947,0.000997,3e-06,0.3
99,535,-3952,-51,49,36,-0.646,-6.406,-0.074108,-0.110058,0.000947,0.000994,3e-06,0.3
354,576,-4385,-72,-6,65,-0.893,-6.353,-0.07841,-0.109138,0.000947,0.000992,3e-06,0.3
257,606,-4340,-20,-14,39,-1.199,-6.277,-0.083757,-0.107812,0.000947,0.000989,3e-06,0.3
312,444,-3915,7,-3,38,-1.271,-6.13,-0.085011,-0.105235,0.000947,0.000987,3e-06,0.3
117,426,-3819,23,-5,128,-1.271,-5.957,-0.085021,-0.102229,0.000947,0.000985,3e-06,0.3
213,498,-3871,21,32,166,-1.363,-5.887,-0.086629,-0.101008,0.000947,0.000986,3e-06,0.3
393,518,-4182,-8,20,192,-1.424,-5.805,-0.087685,-0.099577,0.000947,0.000987,3e-06,0.3
249,460,-4184,116,3,157,-1.399,-5.688,-0.087244,-0.09753,0.000947,0.000987,3e-06,0.3
346,493,-4251,179,-3,37,-1.172,-5.638,-0.083293,-0.096662,0.000947,0.000985,3e-06,0.3
429,486,-3964,153,-16,-58,-0.824,-5.585,-0.077208,-0.095732,0.000947,0.000983,3e-06,0.3
222,517,-3951,48,29,-209,-0.713,-5.561,-0.075274,-0.095319,0.000947,0.000983,3e-06,0.3
337,499,-4228,-9,-1,-293,-0.737,-5.631,-0.075693,-0.096533,0.000947,0.000988,3e-06,0.3
289,434,-4247,-61,34,-305,-0.788,-5.725,-0.076588,-0.098181,0.000947,0.000993,3e-06,0.3
173,421,-4039,-66,57,-294,-0.933,-5.791,-0.079109,-0.099334,0.000947,0.000998,3e-06,0.3
312,408,-3919,-51,-8,-172,-1.154,-5.753,-0.082971,-0.098659,0.000947,0.001001,3e-06,0.3
197,366,-4092,51,37,-148,-1.088,-5.738,-0.081826,-0.098403,0.000947,0.001001,3e-06,0.3
274,408,-3931,68,-5,-129,-0.961,-5.726,-0.079613,-0.098195,0.000947,0.001,3e-06,0.3
324,463,-4133,42,31,-159,-0.891,-5.76,-0.078388,-0.098779,0.000947,0.001,3e-06,0.3
263,461,-4157,-17,-3,-155,-0.883,-5.789,-0.078242,-0.099287,0.000947,0.000999,3e-06,0.3
255,450,-4132,-124,7,-142,-1.072,-5.751,-0.081544,-0.098628,0.000947,0.000999,3e-06,0.3
273,450,-4117,-122,41,-139,-1.442,-5.738,-0.087997,-0.098397,0.000947,0.000997,3e-06,0.3
246,423,-4007,-38,-2,-152,-1.71,-5.774,-0.092683,-0.099028,0.000947,0.000996,3e-06,0.3
337,426,-3973,91,30,-196,-1.638,-5.823,-0.09142,-0.09988,0.000947,0.000997,3e-06,0.3
187,429,-4104,64,34,-156,-1.397,-5.91,-0.087209,-0.101399,0.000947,0.000998,3e-06,0.3
199,448,-4082,-23,-4,-28,-1.403,-5.888,-0.087316,-0.101025,0.000947,0.000996,3e-06,0.3
264,359,-4090,8,-11,85,-1.471,-5.736,-0.088508,-0.098369,0.000947,0.000993,3e-06,0.3
290,504,-4092,-25,0,0,-1.544,-5.695,-0.089776,-0.097645,0.000947,0.000991,3e-06,0.3
287,492,-4114,-8,16,-144,-1.641,-5.695,-0.091464,-0.097655,0.000947,0.000989,3e-06,0.3
368,469,-4068,54,0,-256,-1.6,-5.733,-0.090751,-0.098312,0.000947,0.000991,3e-06,0.3
230,515,-4095,18,47,-300,-1.511,-5.825,-0.089211,-0.099913,0.000947,0.000995,3e-06,0.3
256,467,-4099,1,23,-348,-1.461,-5.937,-0.088324,-0.101879,0.000947,0.001001,3e-06,0.3
302,460,-4073,28,57,-364,-1.375,-6.088,-0.08683,-0.104517,0.000947,0.00101,3e-06,0.3
158,455,-4086,-60,30,-243,-1.365,-6.189,-0.086656,-0.106281,0.000947,0.001014,3e-06,0.3
330,486,-4107,-86,16,-223,-1.519,-6.171,-0.089341,-0.105962,0.000947,0.001015,3e-06,0.3
223,433,-4021,-39,63,-222,-1.641,-6.267,-0.091475,-0.10763,0.000947,0.001016,3e-06,0.3
252,474,-4109,21,24,-286,-1.616,-6.339,-0.091028,-0.108887,0.000947,0.001019,3e-06,0.3
246,420,-4051,12,50,-171,-1.545,-6.411,-0.089804,-0.110148,0.000947,0.001019,3e-06,0.3
193,350,-4182,48,-37,-12,-1.452,-6.363,-0.088174,-0.109311,0.000947,0.001015,3e-06,0.3
324,464,-4010,-10,23,-42,-1.429,-6.314,-0.087768,-0.108459,0.000947,0.00101,3e-06,0.3
242,405,-4000,-70,10,-33,-1.559,-6.289,-0.090039,-0.108017,0.000947,0.001007,3e-06,0.3
232,444,-4038,-55,-8,-60,-1.699,-6.221,-0.092487,-0.106829,0.000947,0.001003,3e-06,0.3
319,498,-4263,0,35,-147,-1.742,-6.181,-0.093234,-0.106129,0.000947,0.001002,3e-06,0.3
254,414,-4158,18,2,-54,-1.693,-6.226,-0.092388,-0.106922,0.000947,0.000999,3e-06,0.3
287,414,-4060,28,-10,-43,-1.602,-6.153,-0.090795,-0.105637,0.000947,0.000996,3e-06,0.3
247,535,-3799,3,49,-110,-1.633,-6.145,-0.091332,-0.105498,0.000947,0.000994,3e-06,0.3
362,432,-4199,30,17,-138,-1.482,-6.186,-0.088689,-0.106216,0.000947,0.000993,3e-06,0.3
373,552,-4232,11,-31,-241,-1.369,-6.2,-0.086729,-0.106469,0.000947,0.000994,3e-06,0.3
290,628,-4009,-58,-13,-376,-1.558,-6.219,-0.090028,-0.106799,0.000947,0.000997,3e-06,0.3
206,430,-4050,-30,31,-299,-1.559,-6.299,-0.090044,-0.108186,0.000947,0.001003,3e-06,0.3
274,577,-4026,3,47,-351,-1.535,-6.381,-0.089615,-0.109624,0.000947,0.001008,3e-06,0.3
262,461,-4192,26,-3,-354,-1.483,-6.53,-0.08871,-0.112223,0.000947,0.001015,3e-06,0.3
217,535,-4095,21,32,-171,-1.456,-6.594,-0.088241,-0.113342,0.000947,0.001016,3e-06,0.3
218,591,-4209,39,59,-202,-1.373,-6.681,-0.086801,-0.114857,0.000947,0.001016,3e-06,0.3
331,825,-3846,166,12,-170,-1.295,-6.702,-0.085428,-0.115231,0.000947,0.001015,3e-06,0.3
271,711,-3940,359,1,-153,-0.804,-6.71,-0.076863,-0.115359,0.000947,0.001013,3e-06,0.3
253,752,-4158,432,19,-87,0.148,-6.655,-0.060244,-0.11441,0.000947,0.00101,3e-06,0.3
252,766,-4123,203,-9,-17,0.485,-6.556,-0.054359,-0.112673,0.000947,0.001007,3e-06,0.3
272,698,-4044,278,-11,36,0.942,-6.38,-0.046392,-0.109615,0.000947,0.001003,3e-06,0.3
205,611,-3984,227,24,59,1.277,-6.28,-0.040536,-0.107853,0.000947,0.001,3e-06,0.3
352,523,-4318,122,22,89,1.461,-6.144,-0.037339,-0.105482,0.000947,0.000998,3e-06,0.3
248,201,-4117,225,-41,192,1.711,-5.989,-0.032976,-0.102785,0.000947,0.000997,3e-06,0.3
123,418,-4356,62,-5,270,1.656,-5.891,-0.03393,-0.101078,0.000947,0.001,3e-06,0.3
478,297,-3684,36,-54,317,1.34,-5.702,-0.039453,-0.097768,0.000947,0.001006,3e-06,0.3
257,94,-4317,24,-78,483,1.084,-5.52,-0.043916,-0.094595,0.000947,0.001014,3e-06,0.3
142,217,-4468,-34,10,490,0.909,-5.252,-0.046959,-0.089916,0.000947,0.001026,3e-06,0.3
172,263,-4004,-13,34,344,0.755,-5.112,-0.049662,-0.087478,0.000947,0.001033,3e-06,0.3
482,259,-4608,-8,-87,278,0.383,-5.012,-0.05614,-0.085725,0.000947,0.001035,3e-06,0.3
233,-6,-3947,-32,-12,238,0.283,-4.882,-0.057888,-0.083461,0.000947,0.001037,3e-06,0.3
181,251,-4109,-59,12,122,0.15,-4.777,-0.060208,-0.081622,0.000947,0.001036,3e-06,0.3
407,204,-4178,-66,11,-51,-0.089,-4.858,-0.064381,-0.083035,0.000947,0.00103,3e-06,0.3
296,68,-4089,-37,17,-132,-0.14,-4.884,-0.065272,-0.083496,0.000947,0.001026,3e-06,0.3
194,40,-3930,6,25,-124,-0.074,-4.869,-0.064122,-0.083234,0.000947,0.001023,3e-06,0.3
319,64,-4084,24,10,-83,0.092,-4.909,-0.061221,-0.083932,0.000947,0.00102,3e-06,0.3
252,50,-4200,69,-1,-52,0.321,-4.898,-0.057223,-0.083738,0.000947,0.001015,3e-06,0.3
314,119,-4221,-47,3,-84,0.432,-4.893,-0.055285,-0.083657,0.000947,0.001011,3e-06,0.3
311,152,-4009,-165,9,-144,0.314,-4.894,-0.05735,-0.083664,0.000947,0.001009,3e-06,0.3
224,139,-3940,-242,12,-160,-0.056,-4.914,-0.063812,-0.084015,0.000947,0.001008,3e-06,0.3
251,174,-4118,-278,44,-98,-0.686,-4.932,-0.07481,-0.084339,0.000947,0.001005,3e-06,0.3
300,197,-3950,-153,-42,-104,-1.057,-4.979,-0.081277,-0.085152,0.000947,0.001003,3e-06,0.3
367,257,-4312,-149,11,-225,-1.304,-5.049,-0.085588,-0.086378,0.000947,0.001003,3e-06,0.3
290,244,-4191,-67,-24,-168,-1.439,-5.023,-0.087946,-0.085921,0.000947,0.001005,3e-06,0.3
252,211,-4073,-48,-45,-187,-1.369,-5.04,-0.086726,-0.086211,0.000947,0.001003,3e-06,0.3
192,286,-3916,-91,16,-119,-1.415,-5.034,-0.087533,-0.086115,0.000947,0.001002,3e-06,0.3
209,392,-4067,-139,56,-197,-1.599,-5.12,-0.090744,-0.087613,0.000947,0.001001,3e-06,0.3
387,425,-3992,-77,43,-342,-1.753,-5.283,-0.093427,-0.090469,0.000947,0.001004,3e-06,0.3
281,438,-4149,-86,19,-436,-1.851,-5.481,-0.09513,-0.093922,0.000947,0.001011,3e-06,0.3
244,313,-3661,45,28,-405,-1.671,-5.603,-0.091994,-0.096053,0.000947,0.001021,3e-06,0.3
293,439,-3937,70,29,-335,-1.423,-5.715,-0.087662,-0.097999,0.000947,0.001027,3e-06,0.3
295,561,-4642,-67,14,-327,-1.382,-5.897,-0.086952,-0.101184,0.000947,0.001032,3e-06,0.3
284,353,-3925,-46,41,-285,-1.395,-5.947,-0.087187,-0.102043,0.000947,0.001036,3e-06,0.3
221,476,-3973,-52,-4,-129,-1.493,-5.966,-0.088886,-0.102383,0.000947,0.001034,3e-06,0.3
253,430,-4215,-9,51,-94,-1.554,-5.967,-0.089952,-0.102404,0.000947,0.00103,3e-06,0.3
374,469,-4265,-7,50,-174,-1.494,-5.981,-0.088905,-0.102638,0.000947,0.001026,3e-06,0.3
224,394,-3822,41,31,-270,-1.34,-6.054,-0.086216,-0.103912,0.000947,0.001028,3e-06,0.3
234,383,-3724,55,29,-253,-1.205,-6.08,-0.08386,-0.104373,0.000947,0.00103,3e-06,0.3
295,574,-3886,-19,46,-266,-1.242,-6.206,-0.084509,-0.106563,0.000947,0.001031,3e-06,0.3
340,514,-4298,-66,-40,-270,-1.382,-6.251,-0.086945,-0.107348,0.000947,0.001033,3e-06,0.3
139,458,-4120,-26,31,-220,-1.482,-6.238,-0.088691,-0.107134,0.000947,0.001034,3e-06,0.3
300,518,-4272,-37,36,-188,-1.493,-6.304,-0.088886,-0.108278,0.000947,0.001033,3e-06,0.3
377,452,-3954,17,24,-191,-1.458,-6.329,-0.088278,-0.108715,0.000947,0.00103,3e-06,0.3
146,437,-4070,-30,16,-74,-1.496,-6.319,-0.088942,-0.10854,0.000947,0.001028,3e-06,0.3
274,543,-4143,0,37,-26,-1.517,-6.275,-0.089312,-0.107769,0.000947,0.001022,3e-06,0.3
340,491,-3977,7,-3,-66,-1.616,-6.222,-0.091028,-0.106851,0.000947,0.001018,3e-06,0.3
190,512,-4150,22,14,-48,-1.617,-6.192,-0.091057,-0.106331,0.000947,0.001014,3e-06,0.3
261,522,-4169,44,22,-78,-1.556,-6.133,-0.089995,-0.105304,0.000947,0.001011,3e-06,0.3
291,435,-3983,14,34,-19,-1.509,-6.158,-0.089164,-0.10574,0.000947,0.001007,3e-06,0.3
278,510,-4134,24,-3,53,-1.533,-6.076,-0.089591,-0.104301,0.000947,0.001004,3e-06,0.3
300,612,-4136,9,7,-76,-1.553,-6.024,-0.089934,-0.103393,0.000947,0.001001,3e-06,0.3
366,525,-4092,20,2,-139,-1.585,-6.028,-0.090503,-0.103467,0.000947,0.001,3e-06,0.3
243,489,-3993,61,19,-139,-1.573,-6.026,-0.090283,-0.103432,0.000947,0.000998,3e-06,0.3
299,546,-4115,43,22,-183,-1.454,-6.021,-0.088203,-0.103338,0.000947,0.000999,3e-06,0.3
292,516,-4092,22,45,-203,-1.424,-6.051,-0.087683,-0.103869,0.000947,0.001,3e-06,0.3
207,475,-4147,58,13,-139,-1.322,-6.048,-0.085908,-0.103811,0.000947,0.001,3e-06,0.3
324,571,-4130,-2,25,-183,-1.236,-6.073,-0.084404,-0.104255,0.000947,0.001,3e-06,0.3
263,523,-4097,-33,7,-212,-1.357,-6.121,-0.086515,-0.105089,0.000947,0.001001,3e-06,0.3
