acc_x,acc_y,acc_z,gyro_x,gyro_y,gyro_z,kf_roll,kf_pitch,Xk0,Xk1,Pk0,Pk1,Q0,R0
221,304,-4087,-63,0,0,-0.559,-3.111,-0.07258,-0.052558,0.024393,0.024398,1e-05,0.05
238,294,-4087,-54,4,2,-0.553,-3.215,-0.072483,-0.05436,0.016399,0.016402,1e-05,0.05
193,292,-4085,23,-5,-2,-0.578,-3.493,-0.072921,-0.059222,0.001374,0.001374,1e-05,0.05
236,253,-4106,4,2,-4,-0.43,-3.361,-0.070343,-0.056916,0.001156,0.001156,1e-05,0.05
266,327,-4114,15,-2,12,-0.423,-3.408,-0.070218,-0.05773,0.00103,0.00103,1e-05,0.05
206,280,-4111,6,-6,14,-0.433,-3.356,-0.070391,-0.056822,0.000928,0.000929,1e-05,0.05
246,251,-4103,21,1,6,-0.34,-3.323,-0.06877,-0.056257,0.000871,0.000872,1e-05,0.05
248,248,-4110,42,-1,-7,-0.185,-3.403,-0.066068,-0.057643,0.000826,0.000827,1e-05,0.05
222,238,-4098,50,-2,-9,0.002,-3.355,-0.062795,-0.056804,0.000791,0.000792,1e-05,0.05
234,188,-4119,15,-2,7,0.197,-3.342,-0.059389,-0.056589,0.000768,0.000769,1e-05,0.05
240,204,-4118,-7,-1,-7,0.285,-3.36,-0.05785,-0.056906,0.000751,0.000752,1e-05,0.05
220,210,-4115,-22,-4,-13,0.307,-3.328,-0.057473,-0.056336,0.000739,0.000739,1e-05,0.05
247,199,-4116,-46,-3,0,0.294,-3.344,-0.057706,-0.056616,0.00073,0.00073,1e-05,0.05
224,237,-4116,-59,-6,-2,0.193,-3.313,-0.059468,-0.056084,0.000723,0.000723,1e-05,0.05
243,252,-4112,-66,0,-11,0.047,-3.32,-0.062012,-0.056191,0.000718,0.000718,1e-05,0.05
235,284,-4101,-65,2,-31,-0.138,-3.344,-0.065242,-0.056624,0.000714,0.000715,1e-05,0.05
236,285,-4113,-52,-3,-34,-0.272,-3.338,-0.067579,-0.056519,0.000711,0.000714,1e-05,0.05
213,305,-4091,-6,0,0,-0.372,-3.328,-0.06932,-0.056339,0.000709,0.000711,1e-05,0.05
236,311,-4087,29,-2,9,-0.384,-3.31,-0.069538,-0.056018,0.000707,0.000709,1e-05,0.05
213,307,-4105,43,-6,8,-0.334,-3.295,-0.068654,-0.055756,0.000706,0.000707,1e-05,0.05
256,289,-4105,24,0,4,-0.278,-3.305,-0.067683,-0.055933,0.000705,0.000706,1e-05,0.05
214,257,-4112,26,-9,11,-0.203,-3.297,-0.066382,-0.055801,0.000704,0.000705,1e-05,0.05
237,262,-4098,39,2,3,-0.098,-3.275,-0.064542,-0.055413,0.000704,0.000705,1e-05,0.05
248,257,-4114,22,2,-9,-0.021,-3.328,-0.063195,-0.056348,0.000703,0.000704,1e-05,0.05
223,236,-4121,-7,-3,-12,0.034,-3.319,-0.062231,-0.05619,0.000703,0.000704,1e-05,0.05
229,228,-4116,-20,-6,0,0.054,-3.297,-0.061898,-0.055798,0.000703,0.000703,1e-05,0.05
235,262,-4102,-12,-4,6,0.01,-3.314,-0.06265,-0.056096,0.000703,0.000703,1e-05,0.05
230,267,-4099,17,-1,-8,0.013,-3.287,-0.062605,-0.055622,0.000703,0.000703,1e-05,0.05
246,274,-4109,9,-1,-17,0.015,-3.331,-0.062571,-0.056397,0.000702,0.000703,1e-05,0.05
203,240,-4118,7,-6,0,0.043,-3.304,-0.062086,-0.055913,0.000702,0.000703,1e-05,0.05
238,265,-4098,30,-3,16,0.096,-3.264,-0.061163,-0.055215,0.000702,0.000703,1e-05,0.05
255,277,-4098,38,3,-9,0.144,-3.309,-0.060318,-0.056002,0.000702,0.000703,1e-05,0.05
203,235,-4122,42,-5,-16,0.225,-3.306,-0.058905,-0.055952,0.000702,0.000703,1e-05,0.05
230,216,-4114,26,-2,12,0.321,-3.269,-0.057234,-0.055307,0.000702,0.000703,1e-05,0.05
242,235,-4112,15,-4,13,0.383,-3.281,-0.056145,-0.055526,0.000702,0.000703,1e-05,0.05
232,240,-4097,34,-2,-20,0.417,-3.288,-0.055546,-0.055647,0.000702,0.000703,1e-05,0.05
226,223,-4105,55,-6,-2,0.524,-3.282,-0.053678,-0.055544,0.000702,0.000703,1e-05,0.05
209,210,-4128,12,-2,3,0.581,-3.287,-0.052687,-0.055616,0.000702,0.000703,1e-05,0.05
250,197,-4100,26,-3,-16,0.631,-3.272,-0.051813,-0.05537,0.000702,0.000703,1e-05,0.05
207,177,-4121,10,20,0,0.777,-3.283,-0.049275,-0.055558,0.000702,0.000703,1e-05,0.05
256,212,-4118,-6,-9,-4,0.742,-3.283,-0.049873,-0.055557,0.000702,0.000703,1e-05,0.05
217,147,-4115,-1,2,-8,0.838,-3.284,-0.048207,-0.055565,0.000702,0.000703,1e-05,0.05
254,203,-4117,-25,1,-4,0.808,-3.296,-0.048733,-0.055783,0.000702,0.000703,1e-05,0.05
223,161,-4104,9,-10,0,0.832,-3.296,-0.048316,-0.055775,0.000702,0.000703,1e-05,0.05
225,192,-4112,-48,9,12,0.854,-3.267,-0.04792,-0.055281,0.000702,0.000703,1e-05,0.05
238,159,-4128,-78,-16,8,0.676,-3.323,-0.051026,-0.056246,0.000702,0.000703,1e-05,0.05
226,188,-4102,-66,-3,-18,0.592,-3.299,-0.052499,-0.055824,0.000702,0.000703,1e-05,0.05
228,226,-4106,-79,8,-13,0.408,-3.328,-0.055718,-0.056339,0.000702,0.000703,1e-05,0.05
237,258,-4120,-83,-5,0,0.205,-3.327,-0.059248,-0.056329,0.000702,0.000703,1e-05,0.05
220,308,-4084,-28,-1,-6,-0.035,-3.305,-0.06345,-0.055932,0.000702,0.000703,1e-05,0.05
244,333,-4086,18,1,-2,-0.15,-3.31,-0.065442,-0.056019,0.000702,0.000703,1e-05,0.05
232,309,-4097,42,-5,6,-0.16,-3.314,-0.065622,-0.056101,0.000702,0.000703,1e-05,0.05
222,275,-4108,42,-3,10,-0.113,-3.289,-0.064811,-0.055654,0.000702,0.000703,1e-05,0.05
238,254,-4108,39,-2,10,-0.02,-3.292,-0.063182,-0.055714,0.000702,0.000703,1e-05,0.05
233,245,-4113,38,-2,4,0.086,-3.301,-0.061327,-0.055876,0.000702,0.000703,1e-05,0.05
243,210,-4117,18,2,-9,0.214,-3.316,-0.059102,-0.056129,0.000702,0.000703,1e-05,0.05
235,193,-4120,-11,-3,-13,0.321,-3.335,-0.057221,-0.056469,0.000702,0.000703,1e-05,0.05
228,196,-4120,-44,-2,-9,0.319,-3.323,-0.057269,-0.056258,0.000702,0.000703,1e-05,0.05
223,220,-4117,-44,-7,11,0.265,-3.293,-0.058212,-0.055724,0.000702,0.000703,1e-05,0.05
255,284,-4100,-25,-1,1,0.14,-3.301,-0.060384,-0.055868,0.000702,0.000703,1e-05,0.05
243,288,-4098,2,4,-29,0.044,-3.36,-0.062066,-0.056905,0.000702,0.000703,1e-05,0.05
200,281,-4102,26,-5,-2,0.029,-3.302,-0.062322,-0.055877,0.000702,0.000704,1e-05,0.05
246,276,-4096,31,-4,26,0.055,-3.304,-0.061865,-0.055913,0.000702,0.000704,1e-05,0.05
226,276,-4112,38,-7,11,0.088,-3.3,-0.0613,-0.055843,0.000702,0.000704,1e-05,0.05
245,235,-4104,49,5,-13,0.196,-3.309,-0.059409,-0.056011,0.000702,0.000704,1e-05,0.05
221,206,-4115,36,-4,10,0.352,-3.323,-0.056693,-0.05625,0.000702,0.000703,1e-05,0.05
236,224,-4108,24,-3,12,0.435,-3.287,-0.055237,-0.055627,0.000702,0.000703,1e-05,0.05
245,216,-4110,24,1,-3,0.509,-3.322,-0.053941,-0.056228,0.000702,0.000703,1e-05,0.05
225,196,-4110,20,1,-2,0.601,-3.321,-0.052347,-0.056223,0.000702,0.000703,1e-05,0.05
235,183,-4125,-8,-3,-2,0.663,-3.308,-0.051258,-0.055997,0.000702,0.000703,1e-05,0.05
225,218,-4115,-23,-3,3,0.634,-3.306,-0.051764,-0.055959,0.000702,0.000703,1e-05,0.05
241,246,-4101,5,-3,-3,0.575,-3.299,-0.052793,-0.055831,0.000702,0.000702,1e-05,0.05
245,237,-4100,23,4,-19,0.563,-3.331,-0.053005,-0.0564,0.000702,0.000703,1e-05,0.05
205,225,-4124,9,-4,-23,0.587,-3.336,-0.052587,-0.056485,0.000702,0.000703,1e-05,0.05
223,173,-4091,29,-13,50,0.644,-3.267,-0.051599,-0.055283,0.000702,0.000704,1e-05,0.05
245,237,-4118,20,1,26,0.74,-3.298,-0.04992,-0.055816,0.000702,0.000706,1e-05,0.05
252,200,-4122,-24,-4,0,0.696,-3.297,-0.050682,-0.055804,0.000702,0.000706,1e-05,0.05
214,141,-4096,21,2,-29,0.755,-3.331,-0.049646,-0.05639,0.000702,0.000708,1e-05,0.05
216,196,-4129,-19,1,14,0.836,-3.326,-0.048243,-0.056296,0.000702,0.000707,1e-05,0.05
257,261,-4093,-10,-10,3,0.76,-3.284,-0.049563,-0.055578,0.000702,0.000708,1e-05,0.05
243,203,-4120,22,14,-24,0.753,-3.326,-0.049684,-0.056298,0.000702,0.000707,1e-05,0.05
217,252,-4125,13,-9,14,0.743,-3.341,-0.049872,-0.056574,0.000702,0.000706,1e-05,0.05
238,214,-4098,32,-2,4,0.727,-3.298,-0.050143,-0.055814,0.000702,0.000705,1e-05,0.05
251,204,-4093,39,-3,4,0.811,-3.338,-0.048673,-0.056517,0.000702,0.000704,1e-05,0.05
259,190,-4113,26,-38,37,0.918,-3.278,-0.046802,-0.055474,0.000702,0.000706,1e-05,0.05
218,81,-4063,-56,13,-20,0.943,-3.32,-0.046375,-0.056194,0.000702,0.000705,1e-05,0.05
271,210,-4107,60,-17,-49,0.979,-3.449,-0.045751,-0.058455,0.000702,0.000708,1e-05,0.05
160,30,-4231,-129,-24,10,0.988,-3.284,-0.045582,-0.055563,0.000702,0.000707,1e-05,0.05
48,103,-4011,-61,-82,57,0.949,-2.827,-0.046263,-0.047601,0.000702,0.000712,1e-05,0.05
385,195,-4057,-63,119,-33,0.877,-3.214,-0.04753,-0.054354,0.000702,0.000711,1e-05,0.05
127,359,-4119,31,11,-75,0.584,-3.391,-0.052634,-0.057435,0.000702,0.000718,1e-05,0.05
262,142,-4132,-15,129,-16,0.606,-3.326,-0.052257,-0.056312,0.000702,0.000718,1e-05,0.05
703,331,-4615,190,-110,50,0.627,-3.177,-0.051882,-0.053703,0.000702,0.000723,1e-05,0.05
-307,58,-3762,-131,-132,-16,0.629,-3.042,-0.051853,-0.05134,0.000702,0.000722,1e-05,0.05
174,563,-3923,191,34,-80,0.426,-2.441,-0.055391,-0.040854,0.000702,0.000721,1e-05,0.05
315,-84,-4091,-35,40,50,0.914,-2.93,-0.046884,-0.049395,0.000702,0.000718,1e-05,0.05
109,231,-4091,59,-50,39,1.059,-2.913,-0.044344,-0.049101,0.000702,0.000719,1e-05,0.05
207,125,-4110,4,-5,-14,1.251,-2.799,-0.041001,-0.047105,0.000702,0.000715,1e-05,0.05
270,146,-4099,0,24,-21,1.253,-3.027,-0.040964,-0.05108,0.000702,0.000713,1e-05,0.05
139,146,-4125,-4,-31,-3,1.286,-2.874,-0.040391,-0.048415,0.000702,0.00071,1e-05,0.05
232,162,-4086,-4,15,0,1.283,-2.882,-0.040432,-0.048553,0.000702,0.000708,1e-05,0.05
185,177,-4122,-8,-11,-7,1.255,-2.922,-0.040936,-0.049249,0.000702,0.000707,1e-05,0.05
180,175,-4101,-6,-1,11,1.223,-2.822,-0.041486,-0.047513,0.000702,0.000706,1e-05,0.05
231,202,-4114,-4,-7,9,1.162,-2.889,-0.042544,-0.048679,0.000702,0.000705,1e-05,0.05
167,180,-4104,13,0,0,1.152,-2.863,-0.042731,-0.048229,0.000702,0.000704,1e-05,0.05
236,158,-4109,-2,-3,-6,1.189,-2.884,-0.042074,-0.048586,0.000702,0.000704,1e-05,0.05
175,141,-4112,-17,-2,0,1.205,-2.897,-0.041802,-0.048808,0.000702,0.000704,1e-05,0.05
192,160,-4109,8,-8,4,1.245,-2.823,-0.041109,-0.047528,0.000702,0.000703,1e-05,0.05
222,192,-4114,-2,7,-6,1.229,-2.877,-0.041385,-0.048472,0.000702,0.000703,1e-05,0.05
177,194,-4122,-14,-5,-17,1.147,-2.868,-0.042811,-0.04831,0.000702,0.000703,1e-05,0.05
201,151,-4109,-13,0,0,1.153,-2.838,-0.042711,-0.047792,0.000702,0.000703,1e-05,0.05
191,156,-4132,-36,0,2,1.133,-2.86,-0.043056,-0.048173,0.000702,0.000703,1e-05,0.05
176,198,-4103,-11,-8,20,1.089,-2.806,-0.043825,-0.04722,0.000702,0.000703,1e-05,0.05
225,229,-4099,27,-5,21,1.046,-2.8,-0.04457,-0.047131,0.000702,0.000704,1e-05,0.05
205,224,-4116,42,-5,-10,1.039,-2.831,-0.044697,-0.047668,0.000702,0.000703,1e-05,0.05
205,169,-4118,37,0,-16,1.096,-2.842,-0.0437,-0.047863,0.000702,0.000704,1e-05,0.05
215,99,-4130,20,-11,25,1.234,-2.836,-0.041302,-0.047757,0.000702,0.000704,1e-05,0.05
172,110,-4129,-16,-6,12,1.366,-2.803,-0.038989,-0.047172,0.000702,0.000705,1e-05,0.05
253,208,-4076,-2,11,-39,1.345,-2.813,-0.039365,-0.047346,0.000702,0.000705,1e-05,0.05
217,253,-4146,23,-30,-23,1.248,-2.934,-0.041055,-0.049455,0.000702,0.000706,1e-05,0.05
112,120,-4179,6,-100,20,1.214,-2.682,-0.041646,-0.045061,0.000702,0.000705,1e-05,0.05
182,51,-4013,-5,-58,66,1.34,-2.351,-0.039438,-0.039279,0.000702,0.000707,1e-05,0.05
164,142,-4091,-15,78,-15,1.425,-2.561,-0.037964,-0.042959,0.000702,0.000706,1e-05,0.05
173,127,-4106,-71,91,-42,1.392,-2.765,-0.038532,-0.046505,0.000702,0.000706,1e-05,0.05
294,332,-4097,10,-2,2,1.217,-2.947,-0.041592,-0.049691,0.000702,0.000705,1e-05,0.05
124,288,-4119,33,-9,-13,1.04,-2.942,-0.044673,-0.04961,0.000702,0.000705,1e-05,0.05
324,151,-4105,49,0,-17,1.068,-2.773,-0.044186,-0.046649,0.000702,0.000705,1e-05,0.05
179,37,-4142,3,9,57,1.284,-3.027,-0.040426,-0.051086,0.000702,0.000706,1e-05,0.05
92,77,-4137,-20,-13,48,1.457,-2.853,-0.037408,-0.04805,0.000702,0.000711,1e-05,0.05
275,153,-4108,-34,6,-19,1.445,-2.859,-0.037617,-0.04816,0.000702,0.000709,1e-05,0.05
207,131,-4115,-44,9,-28,1.379,-3.009,-0.038761,-0.050771,0.000702,0.000709,1e-05,0.05
198,140,-4112,-51,-14,23,1.3,-2.907,-0.040143,-0.048995,0.000702,0.000709,1e-05,0.05
195,220,-4166,-54,-13,-45,1.185,-2.988,-0.042146,-0.050405,0.000702,0.000709,1e-05,0.05
282,186,-4120,-51,-10,0,1.077,-3.049,-0.044032,-0.051466,0.000702,0.000709,1e-05,0.05
159,300,-4083,0,-8,2,0.842,-2.996,-0.048137,-0.050537,0.000702,0.000707,1e-05,0.05
221,294,-4103,36,-25,3,0.706,-2.961,-0.050505,-0.049937,0.000702,0.000706,1e-05,0.05
183,277,-4109,55,-20,-3,0.675,-2.887,-0.051052,-0.048649,0.000702,0.000705,1e-05,0.05
166,137,-4131,14,-14,9,0.797,-2.801,-0.048915,-0.047147,0.000702,0.000704,1e-05,0.05
230,89,-4110,-26,7,32,0.966,-2.819,-0.045968,-0.047464,0.000702,0.000705,1e-05,0.05
198,164,-4113,-20,0,-2,1.024,-2.857,-0.044958,-0.048121,0.000702,0.000705,1e-05,0.05
218,194,-4105,-3,-3,-55,0.995,-2.874,-0.045459,-0.048408,0.000702,0.000708,1e-05,0.05
176,190,-4110,5,9,-26,1.005,-2.876,-0.04529,-0.048453,0.000702,0.00071,1e-05,0.05
191,204,-4131,-18,-2,10,0.965,-2.864,-0.045988,-0.048233,0.000702,0.000708,1e-05,0.05
201,222,-4123,-20,-8,0,0.863,-2.848,-0.047774,-0.047969,0.000702,0.000707,1e-05,0.05
202,230,-4108,-20,3,-25,0.759,-2.855,-0.04959,-0.04809,0.000702,0.000706,1e-05,0.05
196,198,-4104,1,-7,-14,0.698,-2.867,-0.050645,-0.048292,0.000702,0.000706,1e-05,0.05
196,167,-4099,16,7,5,0.843,-2.855,-0.048126,-0.048081,0.000702,0.000705,1e-05,0.05
210,213,-4141,-34,-1,-15,0.76,-2.88,-0.049574,-0.04852,0.000702,0.000704,1e-05,0.05
170,127,-4114,-33,-3,0,0.738,-2.848,-0.049951,-0.047958,0.000702,0.000704,1e-05,0.05
241,190,-4073,-18,8,3,0.782,-2.914,-0.049191,-0.04912,0.000702,0.000704,1e-05,0.05
189,238,-4120,-40,7,-33,0.7,-2.915,-0.05061,-0.049124,0.000702,0.000704,1e-05,0.05
208,230,-4102,-57,-4,-16,0.53,-2.922,-0.053587,-0.049249,0.000702,0.000705,1e-05,0.05
182,229,-4099,-63,-2,29,0.382,-2.89,-0.056166,-0.048693,0.000702,0.000705,1e-05,0.05
203,260,-4104,-59,-3,6,0.19,-2.871,-0.05951,-0.048356,0.000702,0.000705,1e-05,0.05
215,261,-4104,-54,0,-25,0.043,-2.885,-0.062082,-0.0486,0.000702,0.000704,1e-05,0.05
186,256,-4113,-54,1,-21,-0.096,-2.905,-0.064511,-0.048963,0.000702,0.000705,1e-05,0.05
189,259,-4115,-63,-5,7,-0.201,-2.869,-0.066337,-0.048325,0.000702,0.000704,1e-05,0.05
211,283,-4102,-58,-7,8,-0.377,-2.86,-0.06941,-0.048175,0.000702,0.000704,1e-05,0.05
199,304,-4101,-49,1,-16,-0.491,-2.867,-0.071406,-0.048293,0.000702,0.000704,1e-05,0.05
200,308,-4111,-66,-1,-24,-0.641,-2.878,-0.074015,-0.048481,0.000702,0.000704,1e-05,0.05
199,310,-4105,-80,0,-19,-0.801,-2.879,-0.076819,-0.048497,0.000702,0.000704,1e-05,0.05
204,324,-4096,-77,-3,-23,-0.994,-2.879,-0.080189,-0.048505,0.000702,0.000704,1e-05,0.05
199,334,-4102,-65,1,-39,-1.143,-2.894,-0.082784,-0.048757,0.000702,0.000705,1e-05,0.05
208,349,-4112,-66,4,-43,-1.275,-2.911,-0.085078,-0.049057,0.000702,0.000707,1e-05,0.05
198,352,-4107,-63,1,-50,-1.412,-2.923,-0.08747,-0.049278,0.000702,0.000709,1e-05,0.05
217,362,-4087,-35,5,-86,-1.514,-2.956,-0.089261,-0.049854,0.000702,0.000715,1e-05,0.05
222,376,-4090,12,16,-155,-1.527,-3.02,-0.089487,-0.050963,0.000702,0.00073,1e-05,0.05
216,388,-4115,-13,21,-221,-1.518,-3.134,-0.089331,-0.052949,0.000702,0.000768,1e-05,0.05
210,383,-4104,-57,21,-245,-1.591,-3.224,-0.090593,-0.054527,0.000702,0.000803,1e-05,0.05
214,362,-4115,-76,29,-256,-1.714,-3.337,-0.092753,-0.056501,0.000702,0.000846,1e-05,0.05
172,348,-4109,-55,18,-232,-1.779,-3.387,-0.093883,-0.057376,0.000702,0.000872,1e-05,0.05
208,344,-4093,-30,20,-252,-1.77,-3.455,-0.093731,-0.058559,0.000702,0.000897,1e-05,0.05
213,381,-4085,-3,24,-274,-1.775,-3.554,-0.093815,-0.060276,0.000702,0.000929,1e-05,0.05
193,363,-4109,-46,27,-282,-1.769,-3.618,-0.093703,-0.061408,0.000702,0.000956,1e-05,0.05
195,411,-4108,-73,43,-353,-1.908,-3.702,-0.09613,-0.062865,0.000702,0.000984,1e-05,0.05
220,412,-4086,-79,47,-399,-2.052,-3.863,-0.098652,-0.065679,0.000702,0.001028,1e-05,0.05
171,421,-4111,-82,52,-389,-2.199,-4.033,-0.101204,-0.068652,0.000702,0.001077,1e-05,0.05
176,387,-4093,-21,48,-420,-2.19,-4.15,-0.10106,-0.070685,0.000702,0.001113,1e-05,0.05
224,412,-4075,15,40,-447,-2.145,-4.339,-0.100274,-0.073989,0.000702,0.001159,1e-05,0.05
174,350,-4115,65,22,-401,-1.927,-4.427,-0.096456,-0.075523,0.000702,0.001189,1e-05,0.05
145,364,-4162,-40,42,-399,-1.697,-4.461,-0.092455,-0.076114,0.000702,0.001214,1e-05,0.05
111,462,-4086,-144,59,-387,-2.052,-4.54,-0.09865,-0.077488,0.000702,0.001243,1e-05,0.05
203,373,-4104,-84,40,-263,-2.304,-4.567,-0.103036,-0.077969,0.000702,0.001237,1e-05,0.05
150,352,-4110,-98,49,-259,-2.252,-4.567,-0.102143,-0.077958,0.000702,0.001208,1e-05,0.05
153,474,-4014,-74,34,-199,-2.476,-4.346,-0.106043,-0.074108,0.000702,0.00116,1e-05,0.05
283,428,-4122,-49,85,-253,-2.602,-4.413,-0.10824,-0.075278,0.000702,0.001131,1e-05,0.05
111,474,-4158,-105,21,-178,-2.754,-4.364,-0.110899,-0.074424,0.000702,0.001097,1e-05,0.05
135,403,-4071,-107,62,-162,-3.026,-4.249,-0.115651,-0.072413,0.000702,0.00107,1e-05,0.05
266,458,-4023,-8,-19,-265,-3.013,-4.263,-0.115412,-0.072652,0.000702,0.001039,1e-05,0.05
168,472,-4088,-46,29,-311,-3.037,-4.384,-0.115829,-0.074769,0.000702,0.001061,1e-05,0.05
126,483,-4064,-93,59,-319,-3.152,-4.373,-0.117844,-0.074577,0.000702,0.00108,1e-05,0.05
135,463,-4236,-121,67,-269,-3.295,-4.402,-0.120348,-0.075084,0.000702,0.001086,1e-05,0.05
166,470,-4191,-84,50,-217,-3.434,-4.423,-0.122764,-0.075459,0.000702,0.001081,1e-05,0.05
322,549,-3923,-80,28,-341,-3.675,-4.53,-0.12698,-0.077323,0.000702,0.001098,1e-05,0.05
74,531,-4036,-105,29,-360,-3.806,-4.593,-0.129256,-0.078414,0.000702,0.001126,1e-05,0.05
422,702,-4347,-193,66,-539,-4.011,-4.662,-0.132846,-0.079623,0.000702,0.001172,1e-05,0.05
-189,483,-3952,-74,18,-478,-4.208,-4.742,-0.136274,-0.081017,0.000702,0.00121,1e-05,0.05
151,548,-4238,-116,119,-388,-4.113,-4.65,-0.134613,-0.079417,0.000702,0.001227,1e-05,0.05
193,495,-3967,-126,44,-409,-4.286,-4.944,-0.137631,-0.084549,0.000702,0.001246,1e-05,0.05
-53,622,-4156,-130,46,-366,-4.524,-4.982,-0.141792,-0.085213,0.000702,0.001259,1e-05,0.05
59,596,-4043,-131,152,-380,-4.855,-5.009,-0.147566,-0.085685,0.000702,0.001271,1e-05,0.05
130,557,-4168,-124,130,-432,-4.921,-5.273,-0.148712,-0.090279,0.000702,0.001293,1e-05,0.05
-75,574,-3727,-111,104,-436,-5.118,-5.396,-0.152157,-0.092441,0.000702,0.001327,1e-05,0.05
42,639,-3937,-114,143,-402,-5.325,-5.452,-0.15577,-0.093416,0.000702,0.001342,1e-05,0.05
292,805,-4679,-181,37,-463,-5.493,-5.627,-0.158708,-0.096465,0.000702,0.001347,1e-05,0.05
156,675,-4169,-168,99,-399,-5.823,-5.857,-0.164464,-0.100486,0.000702,0.00137,1e-05,0.05
204,844,-4413,-25,58,-394,-6.162,-5.928,-0.170371,-0.101711,0.000702,0.001401,1e-05,0.05
-77,775,-3687,-84,5,-376,-6.205,-5.488,-0.171123,-0.094035,0.000702,0.001399,1e-05,0.05
344,975,-4658,-192,127,-501,-6.522,-5.665,-0.176667,-0.097136,0.000702,0.001372,1e-05,0.05
-24,634,-3572,-188,306,-438,-6.767,-6.149,-0.180943,-0.105577,0.000702,0.001391,1e-05,0.05
17,648,-3952,-168,135,-375,-7.154,-6.088,-0.187691,-0.104512,0.000702,0.00139,1e-05,0.05
22,737,-4199,-180,162,-404,-7.234,-6.15,-0.18908,-0.105595,0.000702,0.001389,1e-05,0.05
459,2049,-4074,511,177,-392,-7.697,-6.227,-0.197176,-0.106944,0.000702,0.001404,1e-05,0.05
-557,1651,-3500,462,412,216,-8.125,-4.563,-0.204645,-0.077899,0.000702,0.001265,1e-05,0.05
2061,4486,-2628,-555,137,1446,-13.137,-3.791,-0.292122,-0.064425,0.000702,0.001349,1e-05,0.05
-1220,1988,-6043,-465,187,-3848,-13.3,-2.256,-0.294967,-0.037637,0.000702,0.001438,1e-05,0.05
677,1957,-442,1991,-97,-3563,-15.799,-6.101,-0.338577,-0.10474,0.000702,0.001534,1e-05,0.05
-1466,-1455,-4585,199,578,-1882,-8.438,-9.499,-0.210101,-0.164048,0.000702,0.001628,1e-05,0.05
734,3523,-3252,1088,272,-2288,-10.616,-11.857,-0.248111,-0.205201,0.000702,0.001717,1e-05,0.05
-451,-1253,-4244,-158,506,-1286,-6.332,-13.225,-0.173354,-0.229078,0.000702,0.001802,1e-05,0.05
-555,1055,-4065,414,492,-1116,-5.486,-14.541,-0.158575,-0.25204,0.000702,0.001878,1e-05,0.05
-128,848,-4213,436,274,-858,-4.071,-15.245,-0.133892,-0.264337,0.000702,0.001935,1e-05,0.05
-405,698,-4078,353,-11,-43,-3.476,-12.257,-0.123493,-0.212184,0.000702,0.001733,1e-05,0.05
-56,967,-3952,484,-54,355,-3.441,-9.499,-0.122889,-0.164038,0.000702,0.001545,1e-05,0.05
71,424,-4259,535,-184,407,-2.575,-8.571,-0.107773,-0.147853,0.000702,0.001546,1e-05,0.05
545,56,-3884,420,134,513,-1.011,-8.311,-0.080473,-0.143318,0.000702,0.001508,1e-05,0.05
-13,352,-4164,396,0,420,0.121,-7.995,-0.06072,-0.137799,0.000702,0.001514,1e-05,0.05
132,-16,-4194,158,-37,409,0.868,-7.306,-0.047682,-0.125774,0.000702,0.0015,1e-05,0.05
284,235,-4062,150,30,453,1.191,-7.055,-0.042051,-0.121396,0.000702,0.001494,1e-05,0.05
60,-46,-4333,65,-54,444,1.702,-6.596,-0.033121,-0.113371,0.000702,0.001507,1e-05,0.05
241,162,-3974,48,-10,410,1.75,-6.175,-0.032281,-0.106022,0.000702,0.0015,1e-05,0.05
227,181,-3998,433,123,451,2.18,-6.194,-0.024786,-0.106366,0.000702,0.001509,1e-05,0.05
216,370,-4867,229,164,467,2.765,-6.779,-0.01457,-0.116565,0.000702,0.001525,1e-05,0.05
393,45,-4179,-246,-168,765,2.136,-6.229,-0.025554,-0.106973,0.000702,0.001571,1e-05,0.05
190,-190,-4017,25,-279,753,2.261,-5.933,-0.023372,-0.101803,0.000702,0.001619,1e-05,0.05
-93,-214,-4059,100,31,786,2.831,-5.556,-0.013416,-0.095228,0.000702,0.001672,1e-05,0.05
143,25,-4052,170,170,753,3.445,-5.609,-0.002697,-0.096154,0.000702,0.001728,1e-05,0.05
176,305,-4073,-48,161,489,3.124,-5.756,-0.008313,-0.098713,0.000702,0.001754,1e-05,0.05
241,-154,-4260,98,76,422,3.025,-5.703,-0.010028,-0.097793,0.000702,0.001748,1e-05,0.05
211,37,-3981,125,-70,450,3.291,-5.528,-0.005394,-0.094736,0.000702,0.001722,1e-05,0.05
154,-29,-4201,156,-76,467,3.521,-5.213,-0.001387,-0.089232,0.000702,0.001712,1e-05,0.05
130,-139,-3843,284,34,543,4.134,-5.037,0.009325,-0.086172,0.000702,0.001725,1e-05,0.05
107,-776,-4288,390,33,587,5.453,-4.985,0.032335,-0.085265,0.000702,0.001732,1e-05,0.05
-198,-52,-3940,181,2330,716,6.672,-5.982,0.05362,-0.102668,0.000702,0.001767,1e-05,0.05
194,-505,-4538,-240,15,756,6.405,-6.035,0.048964,-0.103593,0.000702,0.001799,1e-05,0.05
250,-272,-3799,-240,96,879,6.006,-6.216,0.041985,-0.106742,0.000702,0.001854,1e-05,0.05
220,-534,-4011,-95,-18,758,5.955,-6.438,0.041097,-0.110621,0.000702,0.001901,1e-05,0.05
310,-357,-4218,-107,55,444,6.11,-6.378,0.043807,-0.109574,0.000702,0.001911,1e-05,0.05
339,-608,-4017,-263,-185,195,6.269,-5.67,0.046578,-0.097212,0.000702,0.001738,1e-05,0.05
200,-618,-4044,-240,-19,144,6.326,-5.182,0.047585,-0.088702,0.000702,0.001465,1e-05,0.05
173,-766,-4125,-235,-60,230,6.616,-4.829,0.052639,-0.082531,0.000702,0.00132,1e-05,0.05
130,-802,-4162,-528,9,236,6.627,-4.347,0.052835,-0.07412,0.000702,0.001269,1e-05,0.05
342,-734,-4259,-632,-83,697,5.789,-4.36,0.038204,-0.07436,0.000702,0.001305,1e-05,0.05
4,-612,-4078,-637,-167,877,5.236,-4.21,0.028561,-0.07174,0.000702,0.001379,1e-05,0.05
63,-181,-4021,-630,-64,739,4.169,-3.824,0.009924,-0.065004,0.000702,0.001442,1e-05,0.05
142,97,-4043,-496,81,526,2.723,-3.756,-0.0153,-0.063805,0.000702,0.001488,1e-05,0.05
