acc_x,acc_y,acc_z,gyro_x,gyro_y,gyro_z,kf_roll,kf_pitch,Xk0,Xk1,Pk0,Pk1,Q0,R0
225,693,-4056,-3,-5,4,-5.86,-3.153,-0.165105,-0.053281,0.024393,0.024411,1e-05,0.05
245,721,-4061,2,-6,5,-6.059,-3.265,-0.168578,-0.055246,0.016399,0.01641,1e-05,0.05
418,1154,-2092,1753,-339,223,-6.55,-3.453,-0.177148,-0.058522,0.001374,0.001633,1e-05,0.05
279,-1026,-4137,1124,430,-213,-1.812,-3.682,-0.094453,-0.062521,0.001156,0.001486,1e-05,0.05
178,1422,-3778,1490,80,-417,-0.282,-3.84,-0.067752,-0.065267,0.001019,0.001474,1e-05,0.05
351,-210,-4771,97,67,-303,0.125,-3.929,-0.060649,-0.066832,0.000928,0.001429,1e-05,0.05
162,-158,-4441,-107,-16,23,0.227,-3.629,-0.058868,-0.061599,0.000866,0.001236,1e-05,0.05
164,167,-3552,128,13,90,0.718,-3.384,-0.050307,-0.057322,0.000826,0.001113,1e-05,0.05
301,5,-4072,57,-14,80,1.244,-3.507,-0.041114,-0.059464,0.000791,0.001005,1e-05,0.05
182,42,-4091,81,24,109,1.565,-3.486,-0.035514,-0.059101,0.00077,0.000946,1e-05,0.05
327,99,-4121,162,34,70,2.07,-3.431,-0.026703,-0.058141,0.000751,0.000905,1e-05,0.05
256,62,-4180,-100,-63,122,2.083,-3.407,-0.026479,-0.057719,0.000739,0.000886,1e-05,0.05
175,144,-3924,-224,28,115,1.688,-3.378,-0.033365,-0.057204,0.00073,0.000869,1e-05,0.05
315,149,-4255,-117,25,34,1.228,-3.432,-0.041406,-0.058148,0.000723,0.000829,1e-05,0.05
360,41,-4082,-112,-60,118,1.145,-3.424,-0.042845,-0.058021,0.000718,0.000808,1e-05,0.05
173,-5,-4101,37,40,227,1.359,-3.377,-0.039115,-0.057186,0.000714,0.000831,1e-05,0.05
212,94,-4047,-4,15,93,1.611,-3.197,-0.034715,-0.054052,0.000711,0.000834,1e-05,0.05
338,225,-4297,-73,29,24,1.421,-3.314,-0.038033,-0.056101,0.000709,0.000808,1e-05,0.05
206,120,-4174,-225,16,-11,1.069,-3.436,-0.044169,-0.058219,0.000707,0.000779,1e-05,0.05
240,156,-3947,-193,15,-38,0.638,-3.307,-0.051697,-0.055981,0.000706,0.00076,1e-05,0.05
306,177,-4025,-198,16,-48,0.338,-3.527,-0.05693,-0.059812,0.000705,0.000752,1e-05,0.05
189,165,-4242,-149,-18,-17,0.057,-3.507,-0.061843,-0.059459,0.000704,0.000743,1e-05,0.05
259,148,-4150,-74,7,-36,0.029,-3.432,-0.062326,-0.058147,0.000704,0.000735,1e-05,0.05
273,182,-4120,-48,-1,-51,0.113,-3.55,-0.060853,-0.060209,0.000703,0.000729,1e-05,0.05
202,178,-4108,-83,-3,-32,0.115,-3.476,-0.060819,-0.058914,0.000703,0.000725,1e-05,0.05
252,226,-4127,-169,-2,-28,-0.089,-3.504,-0.064377,-0.059403,0.000703,0.000721,1e-05,0.05
250,239,-4090,-244,-14,17,-0.572,-3.463,-0.072817,-0.058701,0.000703,0.000717,1e-05,0.05
247,280,-4080,-224,-9,-20,-1.058,-3.502,-0.081292,-0.059376,0.000703,0.000714,1e-05,0.05
204,333,-4105,-159,30,-82,-1.41,-3.522,-0.087449,-0.059725,0.000702,0.000714,1e-05,0.05
366,295,-4222,-158,14,-194,-1.7,-3.632,-0.092505,-0.061646,0.000702,0.000743,1e-05,0.05
241,296,-3935,-64,14,-197,-1.813,-3.758,-0.094468,-0.063846,0.000702,0.000769,1e-05,0.05
248,346,-4203,-74,20,-327,-1.777,-3.835,-0.093847,-0.065192,0.000702,0.00081,1e-05,0.05
194,317,-3872,-20,63,-259,-1.753,-3.978,-0.093427,-0.06768,0.000702,0.000862,1e-05,0.05
187,355,-3845,-43,57,-277,-1.678,-4.063,-0.092115,-0.069159,0.000702,0.00089,1e-05,0.05
282,477,-4234,-173,-42,-423,-1.907,-4.184,-0.096111,-0.071277,0.000702,0.000944,1e-05,0.05
267,511,-4098,-74,21,-469,-2.21,-4.345,-0.101403,-0.074089,0.000702,0.000994,1e-05,0.05
122,452,-4198,90,6,-515,-2.209,-4.576,-0.101383,-0.078114,0.000702,0.001064,1e-05,0.05
216,421,-4188,12,57,-500,-1.975,-4.715,-0.097296,-0.080542,0.000702,0.001118,1e-05,0.05
203,502,-4070,58,90,-462,-2.033,-4.932,-0.09832,-0.084327,0.000702,0.001171,1e-05,0.05
41,244,-4013,146,46,-246,-1.65,-4.9,-0.091629,-0.083767,0.000702,0.001175,1e-05,0.05
315,475,-3934,-36,-22,-174,-1.539,-4.624,-0.089701,-0.078966,0.000702,0.001118,1e-05,0.05
220,538,-3905,0,59,-110,-1.745,-4.583,-0.093282,-0.078238,0.000702,0.001038,1e-05,0.05
324,523,-4384,29,-57,-141,-1.926,-4.285,-0.09645,-0.073041,0.000702,0.000988,1e-05,0.05
266,407,-3927,-6,-55,-58,-1.935,-4.197,-0.096605,-0.071514,0.000702,0.000931,1e-05,0.05
216,675,-4453,65,-20,-145,-2.084,-4.124,-0.099207,-0.07023,0.000702,0.000899,1e-05,0.05
161,422,-4057,86,-3,-111,-1.881,-3.934,-0.095666,-0.066916,0.000702,0.000871,1e-05,0.05
310,552,-3965,73,32,-191,-1.985,-4.079,-0.097471,-0.069442,0.000702,0.000856,1e-05,0.05
199,508,-4126,62,5,-196,-2.089,-3.989,-0.099295,-0.067871,0.000702,0.000844,1e-05,0.05
242,460,-3858,220,22,-236,-1.887,-4.065,-0.095762,-0.069208,0.000702,0.000863,1e-05,0.05
164,419,-4117,217,20,-238,-1.404,-3.992,-0.087335,-0.067928,0.000702,0.000889,1e-05,0.05
195,502,-4261,197,18,-245,-1.149,-4.043,-0.082892,-0.068813,0.000702,0.000918,1e-05,0.05
226,401,-3971,231,38,-230,-0.773,-4.112,-0.076328,-0.070028,0.000702,0.000928,1e-05,0.05
162,454,-4125,148,-6,-194,-0.568,-4.047,-0.072744,-0.068894,0.000702,0.000935,1e-05,0.05
191,389,-4115,8,11,-55,-0.518,-3.881,-0.07188,-0.065997,0.000702,0.000895,1e-05,0.05
213,466,-4115,34,8,46,-0.74,-3.79,-0.075746,-0.064407,0.000702,0.000844,1e-05,0.05
176,382,-4062,110,18,83,-0.76,-3.596,-0.07609,-0.061019,0.000702,0.000819,1e-05,0.05
228,360,-4088,71,-14,65,-0.629,-3.568,-0.073809,-0.060526,0.000702,0.000802,1e-05,0.05
243,422,-3991,117,-16,55,-0.612,-3.579,-0.073513,-0.060725,0.000702,0.000782,1e-05,0.05
245,333,-3993,184,-38,14,-0.467,-3.528,-0.070984,-0.059834,0.000702,0.000764,1e-05,0.05
132,356,-4038,193,4,-41,-0.177,-3.274,-0.065927,-0.055401,0.000702,0.000751,1e-05,0.05
253,338,-4269,179,54,-61,0.211,-3.326,-0.059142,-0.056296,0.000702,0.000746,1e-05,0.05
273,305,-4190,66,17,62,0.398,-3.498,-0.055889,-0.059302,0.000702,0.000737,1e-05,0.05
159,297,-4189,68,-39,105,0.382,-3.378,-0.056169,-0.057211,0.000702,0.000744,1e-05,0.05
304,287,-3853,69,-15,73,0.42,-3.368,-0.055496,-0.057044,0.000702,0.000745,1e-05,0.05
212,186,-4008,144,10,71,0.648,-3.456,-0.051525,-0.058581,0.000702,0.00074,1e-05,0.05
196,148,-3931,189,27,90,1.084,-3.292,-0.043918,-0.055717,0.000702,0.000744,1e-05,0.05
279,137,-4109,159,-14,133,1.541,-3.314,-0.035937,-0.0561,0.000702,0.00075,1e-05,0.05
251,130,-4347,60,-44,130,1.855,-3.334,-0.030464,-0.056452,0.000702,0.000755,1e-05,0.05
88,118,-3797,-4,15,187,1.866,-3.234,-0.03027,-0.054692,0.000702,0.000776,1e-05,0.05
149,77,-4173,-73,53,219,1.694,-3.125,-0.033269,-0.052799,0.000702,0.000802,1e-05,0.05
397,68,-4151,21,3,245,1.728,-3.142,-0.032676,-0.053093,0.000702,0.000838,1e-05,0.05
205,90,-4115,-28,-22,231,1.855,-3.177,-0.030449,-0.053705,0.000702,0.000864,1e-05,0.05
136,81,-4072,-81,-62,252,1.625,-3.022,-0.034475,-0.050996,0.000702,0.000878,1e-05,0.05
148,21,-3919,-44,23,380,1.644,-2.94,-0.034147,-0.049571,0.000702,0.000926,1e-05,0.05
250,46,-4112,-71,42,332,1.702,-2.976,-0.033132,-0.050202,0.000702,0.000972,1e-05,0.05
316,41,-4082,-75,-31,336,1.659,-2.947,-0.033885,-0.049685,0.000702,0.001006,1e-05,0.05
149,32,-4123,-79,-34,291,1.642,-2.903,-0.034167,-0.048925,0.000702,0.001032,1e-05,0.05
210,51,-4239,-80,5,265,1.621,-2.833,-0.034536,-0.047691,0.000702,0.00105,1e-05,0.05
263,14,-3952,-155,-31,350,1.474,-2.801,-0.037105,-0.047138,0.000702,0.001072,1e-05,0.05
223,89,-4034,-202,8,281,1.272,-2.77,-0.04063,-0.046597,0.000702,0.001093,1e-05,0.05
295,80,-4193,-188,-10,123,0.964,-2.887,-0.046014,-0.048636,0.000702,0.001062,1e-05,0.05
237,52,-4040,-173,-2,15,0.776,-3.011,-0.049287,-0.050814,0.000702,0.000975,1e-05,0.05
235,50,-4138,-95,6,-27,0.688,-3.08,-0.050825,-0.052007,0.000702,0.000899,1e-05,0.05
215,24,-4088,-5,1,1,0.959,-3.175,-0.046098,-0.053669,0.000702,0.000842,1e-05,0.05
241,75,-4123,-32,8,4,1.168,-3.202,-0.042441,-0.054147,0.000702,0.000809,1e-05,0.05
234,143,-4214,-199,11,8,0.953,-3.208,-0.046198,-0.054238,0.000702,0.000781,1e-05,0.05
270,144,-4252,-279,-15,-42,0.476,-3.252,-0.054524,-0.055015,0.000702,0.000762,1e-05,0.05
226,154,-4013,-355,21,-88,-0.209,-3.318,-0.066475,-0.056173,0.000702,0.00075,1e-05,0.05
274,229,-3944,-340,25,-180,-0.938,-3.389,-0.079211,-0.057398,0.000702,0.000768,1e-05,0.05
245,306,-4085,-212,-38,-247,-1.289,-3.465,-0.085322,-0.058735,0.000702,0.000809,1e-05,0.05
260,293,-4147,-267,29,-349,-1.63,-3.623,-0.091281,-0.061481,0.000702,0.000858,1e-05,0.05
208,383,-3927,-58,40,-345,-1.934,-3.703,-0.096591,-0.062889,0.000702,0.000903,1e-05,0.05
255,231,-4004,-113,88,-287,-1.73,-3.864,-0.093032,-0.065692,0.000702,0.000949,1e-05,0.05
135,383,-4173,-81,89,-338,-1.802,-3.954,-0.094277,-0.067268,0.000702,0.000983,1e-05,0.05
197,442,-4077,-69,107,-275,-1.892,-4.101,-0.095847,-0.069825,0.000702,0.001011,1e-05,0.05
308,559,-4155,-73,32,-239,-2.082,-4.284,-0.099163,-0.073026,0.000702,0.001023,1e-05,0.05
227,516,-4023,-95,122,-297,-2.317,-4.346,-0.103271,-0.074104,0.000702,0.001035,1e-05,0.05
143,454,-4160,101,62,-284,-2.316,-4.291,-0.103248,-0.073138,0.000702,0.001054,1e-05,0.05
149,493,-4243,41,105,-250,-2.119,-4.232,-0.099823,-0.07212,0.000702,0.00105,1e-05,0.05
223,519,-3955,-22,63,-240,-2.166,-4.334,-0.100628,-0.073904,0.000702,0.001027,1e-05,0.05
403,634,-4134,64,-8,-286,-2.409,-4.531,-0.104877,-0.077328,0.000702,0.001035,1e-05,0.05
187,567,-4160,105,-30,-320,-2.315,-4.465,-0.103231,-0.07618,0.000702,0.001052,1e-05,0.05
132,609,-4463,169,30,-302,-2.159,-4.407,-0.10051,-0.075171,0.000702,0.001064,1e-05,0.05
318,620,-4217,125,16,-364,-2.097,-4.452,-0.099428,-0.075952,0.000702,0.001091,1e-05,0.05
255,506,-3808,101,-17,-432,-2.166,-4.643,-0.100629,-0.079292,0.000702,0.001131,1e-05,0.05
-7,505,-4004,204,36,-408,-2.102,-4.618,-0.099516,-0.078849,0.000702,0.00117,1e-05,0.05
125,388,-3969,165,100,-325,-1.56,-4.556,-0.090054,-0.077769,0.000702,0.001199,1e-05,0.05
183,573,-4039,183,58,-293,-1.33,-4.653,-0.086039,-0.079459,0.000702,0.001187,1e-05,0.05
80,497,-4027,191,3,-226,-1.167,-4.428,-0.083198,-0.075535,0.000702,0.001148,1e-05,0.05
229,491,-4028,140,43,-82,-1.029,-4.223,-0.080794,-0.071961,0.000702,0.001057,1e-05,0.05
232,508,-4126,192,-4,-40,-0.979,-4.198,-0.079925,-0.071522,0.000702,0.000963,1e-05,0.05
282,531,-4087,158,-26,-122,-0.965,-3.997,-0.079681,-0.068007,0.000702,0.000897,1e-05,0.05
268,448,-3951,200,-9,-196,-0.786,-4.037,-0.076545,-0.068711,0.000702,0.000893,1e-05,0.05
160,527,-4155,74,0,-247,-0.809,-4.008,-0.07696,-0.06821,0.000702,0.000912,1e-05,0.05
225,431,-4166,264,13,-225,-0.68,-3.963,-0.074704,-0.067427,0.000702,0.000935,1e-05,0.05
258,332,-4150,302,-128,-143,-0.16,-3.832,-0.065622,-0.065143,0.000702,0.000925,1e-05,0.05
50,342,-3785,261,72,-73,0.31,-3.667,-0.057415,-0.062248,0.000702,0.000889,1e-05,0.05
204,412,-4096,42,19,-69,0.394,-3.408,-0.055953,-0.057737,0.000702,0.000849,1e-05,0.05
365,380,-4223,189,-68,14,0.122,-3.504,-0.060703,-0.059414,0.000702,0.000817,1e-05,0.05
-28,196,-4007,78,-12,112,0.393,-3.432,-0.055973,-0.058156,0.000702,0.0008,1e-05,0.05
202,342,-4338,174,-52,117,0.61,-2.955,-0.052187,-0.049824,0.000702,0.000801,1e-05,0.05
497,108,-4002,176,5,194,1.02,-3.196,-0.045027,-0.054042,0.000702,0.0008,1e-05,0.05
331,178,-4556,124,40,250,1.327,-3.409,-0.039676,-0.057755,0.000702,0.000827,1e-05,0.05
221,161,-3955,194,-54,77,1.605,-3.037,-0.034813,-0.051268,0.000702,0.000826,1e-05,0.05
315,142,-4082,111,18,133,1.874,-3.186,-0.030118,-0.053854,0.000702,0.000818,1e-05,0.05
-17,122,-3936,89,-25,251,2.132,-3.137,-0.025616,-0.053009,0.000702,0.000851,1e-05,0.05
27,-78,-4353,13,41,371,2.368,-3.007,-0.021503,-0.05074,0.000702,0.000892,1e-05,0.05
356,103,-4246,-77,23,403,2.23,-3.042,-0.023913,-0.051348,0.000702,0.00094,1e-05,0.05
235,78,-4345,-129,15,339,1.827,-3.069,-0.030949,-0.051821,0.000702,0.000988,1e-05,0.05
147,-61,-4053,-77,22,169,1.784,-2.932,-0.031701,-0.049436,0.000702,0.000981,1e-05,0.05
336,55,-3996,-20,88,60,1.81,-3.233,-0.031248,-0.054681,0.000702,0.000927,1e-05,0.05
265,-40,-3973,-109,-58,155,1.847,-3.319,-0.030598,-0.056186,0.000702,0.000888,1e-05,0.05
121,0,-4198,-89,-56,305,1.885,-2.968,-0.029925,-0.050064,0.000702,0.000907,1e-05,0.05
224,71,-4139,-174,44,259,1.698,-3.004,-0.033203,-0.050682,0.000702,0.000928,1e-05,0.05
250,-7,-4182,-189,-32,220,1.515,-3.001,-0.036386,-0.050641,0.000702,0.000942,1e-05,0.05
184,-27,-4052,-206,-37,204,1.382,-2.904,-0.038712,-0.048939,0.000702,0.000953,1e-05,0.05
129,45,-3951,-298,17,126,1.0,-2.85,-0.045387,-0.047993,0.000702,0.000946,1e-05,0.05
222,37,-4211,-232,12,83,0.656,-2.929,-0.051379,-0.049374,0.000702,0.000901,1e-05,0.05
231,62,-4241,-188,37,-42,0.497,-3.073,-0.05415,-0.051894,0.000702,0.000844,1e-05,0.05
299,106,-4091,-220,8,-144,0.337,-3.236,-0.056946,-0.054726,0.000702,0.000831,1e-05,0.05
224,42,-4001,-205,-12,-121,0.165,-3.285,-0.059952,-0.055588,0.000702,0.000825,1e-05,0.05
164,-64,-4085,-142,0,-26,0.411,-3.179,-0.055655,-0.053739,0.000702,0.0008,1e-05,0.05
187,98,-4064,-232,15,38,0.355,-3.163,-0.056635,-0.053453,0.000702,0.000776,1e-05,0.05
207,163,-4105,-354,-6,-7,-0.17,-3.169,-0.065795,-0.053557,0.000702,0.000758,1e-05,0.05
232,278,-3884,-520,-28,-128,-1.007,-3.225,-0.08041,-0.054543,0.000702,0.000752,1e-05,0.05
175,390,-3738,-231,82,-208,-1.897,-3.363,-0.095943,-0.056956,0.000702,0.000774,1e-05,0.05
212,200,-4590,-295,26,-279,-2.075,-3.457,-0.099044,-0.058599,0.000702,0.000815,1e-05,0.05
354,345,-3889,-150,64,-279,-2.204,-3.676,-0.101291,-0.062418,0.000702,0.000857,1e-05,0.05
217,502,-4069,-64,-42,-299,-2.388,-3.749,-0.104502,-0.063688,0.000702,0.000896,1e-05,0.05
43,388,-4169,-51,86,-263,-2.288,-3.766,-0.10277,-0.063992,0.000702,0.000926,1e-05,0.05
299,509,-4370,-138,114,-265,-2.376,-3.892,-0.104301,-0.066191,0.000702,0.000937,1e-05,0.05
267,514,-3675,22,34,-201,-2.8,-4.064,-0.111709,-0.069189,0.000702,0.000947,1e-05,0.05
212,530,-4269,-79,53,-460,-2.807,-4.169,-0.111826,-0.071012,0.000702,0.00098,1e-05,0.05
-2,592,-3544,73,103,-458,-2.865,-4.33,-0.112842,-0.073827,0.000702,0.001037,1e-05,0.05
156,521,-4146,152,64,-455,-2.627,-4.444,-0.108688,-0.075813,0.000702,0.001096,1e-05,0.05
-23,672,-4310,28,168,-402,-2.422,-4.633,-0.105098,-0.079122,0.000702,0.001139,1e-05,0.05
178,598,-3837,114,120,-391,-2.486,-4.769,-0.106224,-0.081497,0.000702,0.001168,1e-05,0.05
239,507,-4286,139,96,-306,-2.333,-5.01,-0.103558,-0.085692,0.000702,0.001179,1e-05,0.05
182,656,-3962,97,24,-294,-2.299,-4.992,-0.102962,-0.085377,0.000702,0.001167,1e-05,0.05
193,506,-3866,151,41,-302,-2.344,-4.969,-0.103743,-0.084982,0.000702,0.001178,1e-05,0.05
135,621,-3985,221,37,-256,-2.056,-4.901,-0.098709,-0.083796,0.000702,0.001156,1e-05,0.05
230,558,-4181,209,45,-225,-1.718,-4.697,-0.092817,-0.080233,0.000702,0.001116,1e-05,0.05
301,640,-4038,267,-27,-210,-1.521,-4.626,-0.089378,-0.078995,0.000702,0.001069,1e-05,0.05
214,539,-3847,267,-38,-300,-1.349,-4.616,-0.086373,-0.078827,0.000702,0.00107,1e-05,0.05
113,542,-4049,254,31,-268,-0.979,-4.403,-0.079924,-0.075109,0.000702,0.001073,1e-05,0.05
239,655,-3971,152,45,-289,-0.961,-4.408,-0.079604,-0.075182,0.000702,0.001062,1e-05,0.05
68,517,-4161,212,11,-222,-1.025,-4.324,-0.08073,-0.073715,0.000702,0.00106,1e-05,0.05
141,461,-4037,199,2,-185,-0.773,-4.086,-0.076326,-0.069569,0.000702,0.001035,1e-05,0.05
165,440,-4174,184,42,39,-0.58,-3.967,-0.072953,-0.067489,0.000702,0.000945,1e-05,0.05
147,329,-4043,292,5,133,-0.232,-3.719,-0.066883,-0.063157,0.000702,0.000913,1e-05,0.05
365,438,-4239,324,8,94,0.189,-3.696,-0.05953,-0.062757,0.000702,0.000872,1e-05,0.05
235,381,-4125,257,-40,39,0.514,-3.609,-0.053852,-0.061247,0.000702,0.000856,1e-05,0.05
199,340,-3842,243,-2,44,0.721,-3.523,-0.050248,-0.059748,0.000702,0.000824,1e-05,0.05
212,277,-4248,250,8,25,1.145,-3.416,-0.042844,-0.057876,0.000702,0.000792,1e-05,0.05
342,252,-4288,207,-8,1,1.477,-3.426,-0.037047,-0.058045,0.000702,0.00077,1e-05,0.05
21,139,-3914,207,30,3,1.863,-3.224,-0.030323,-0.054517,0.000702,0.000753,1e-05,0.05
154,142,-3801,164,35,52,2.092,-3.067,-0.026319,-0.051786,0.000702,0.000744,1e-05,0.05
394,98,-4022,51,-10,89,2.293,-3.326,-0.022809,-0.056307,0.000702,0.000738,1e-05,0.05
38,23,-4165,-51,41,164,2.166,-3.138,-0.025029,-0.053027,0.000702,0.000757,1e-05,0.05
392,21,-4577,-26,-109,145,2.191,-2.845,-0.024585,-0.047902,0.000702,0.000756,1e-05,0.05
132,-7,-4088,21,-37,352,2.22,-3.068,-0.024089,-0.051797,0.000702,0.000799,1e-05,0.05
230,-153,-3906,10,-97,442,2.518,-2.843,-0.018886,-0.047867,0.000702,0.000867,1e-05,0.05
-12,-3,-3856,-96,53,638,2.505,-2.736,-0.019112,-0.046007,0.000702,0.000941,1e-05,0.05
167,157,-4078,-182,81,444,2.216,-2.757,-0.024156,-0.046375,0.000702,0.001008,1e-05,0.05
360,21,-4185,-189,-7,383,1.9,-2.838,-0.029669,-0.047782,0.000702,0.001056,1e-05,0.05
169,8,-4517,-141,-51,268,1.798,-2.769,-0.031456,-0.046585,0.000702,0.001087,1e-05,0.05
254,-75,-3862,-116,20,202,1.751,-2.677,-0.032277,-0.044976,0.000702,0.001087,1e-05,0.05
216,-14,-4098,-132,59,113,1.625,-2.976,-0.03447,-0.050188,0.000702,0.001012,1e-05,0.05
223,23,-4220,-153,2,68,1.695,-2.931,-0.033252,-0.049418,0.000702,0.000969,1e-05,0.05
252,-6,-3961,-276,35,56,1.435,-2.981,-0.037793,-0.050276,0.000702,0.000912,1e-05,0.05
250,-26,-3996,-315,-34,140,0.977,-3.061,-0.045787,-0.051686,0.000702,0.000871,1e-05,0.05
248,50,-4426,-301,-35,47,0.571,-3.109,-0.052865,-0.052517,0.000702,0.000844,1e-05,0.05
196,77,-3841,-260,-12,40,0.102,-3.09,-0.061051,-0.052191,0.000702,0.000808,1e-05,0.05
251,85,-3974,-148,14,-107,-0.04,-3.1,-0.063536,-0.052365,0.000702,0.000784,1e-05,0.05
213,63,-4163,-159,32,-197,0.053,-3.201,-0.06191,-0.054122,0.000702,0.000798,1e-05,0.05
243,80,-4266,-251,24,-160,-0.099,-3.301,-0.064561,-0.05586,0.000702,0.000818,1e-05,0.05
194,107,-4024,-320,14,-84,-0.387,-3.334,-0.069582,-0.056443,0.000702,0.000813,1e-05,0.05
143,159,-4056,-312,48,-55,-0.785,-3.234,-0.076533,-0.054696,0.000702,0.00079,1e-05,0.05
363,283,-4256,-344,24,-65,-1.212,-3.362,-0.083989,-0.056931,0.000702,0.000774,1e-05,0.05
152,258,-4238,-270,-8,-204,-1.589,-3.473,-0.09057,-0.058872,0.000702,0.000785,1e-05,0.05
265,391,-4159,-267,6,-168,-2.156,-3.485,-0.100455,-0.059072,0.000702,0.000802,1e-05,0.05
190,247,-3531,-20,29,-150,-2.312,-3.624,-0.10319,-0.061505,0.000702,0.000823,1e-05,0.05
180,412,-4021,-185,-42,-256,-2.429,-3.724,-0.105217,-0.063251,0.000702,0.000858,1e-05,0.05
328,485,-4488,-20,-3,-366,-2.559,-3.846,-0.107498,-0.065384,0.000702,0.0009,1e-05,0.05
267,430,-4190,-87,12,-448,-2.496,-4.013,-0.106404,-0.068287,0.000702,0.000954,1e-05,0.05
-84,455,-3453,75,131,-441,-2.561,-4.2,-0.107528,-0.071558,0.000702,0.001014,1e-05,0.05
332,611,-4184,-53,82,-549,-2.699,-4.516,-0.109932,-0.077074,0.000702,0.001075,1e-05,0.05
217,550,-3730,42,112,-513,-2.727,-4.727,-0.110432,-0.080761,0.000702,0.001124,1e-05,0.05
-46,420,-3875,48,68,-369,-2.543,-4.767,-0.107218,-0.081455,0.000702,0.001159,1e-05,0.05
328,600,-4079,123,-6,-356,-2.469,-4.823,-0.105918,-0.082426,0.000702,0.001162,1e-05,0.05
118,578,-4107,139,32,-335,-2.349,-4.899,-0.103825,-0.083757,0.000702,0.001186,1e-05,0.05
176,682,-4264,63,86,-292,-2.31,-4.759,-0.103148,-0.081312,0.000702,0.001193,1e-05,0.05
145,541,-4100,116,85,-255,-2.307,-4.8,-0.103091,-0.082032,0.000702,0.001157,1e-05,0.05
188,687,-4235,76,20,-220,-2.483,-4.742,-0.10617,-0.081022,0.000702,0.001133,1e-05,0.05
250,488,-3525,262,18,-224,-2.46,-4.764,-0.105761,-0.081394,0.000702,0.001113,1e-05,0.05
91,606,-4433,145,73,-168,-2.167,-4.662,-0.100658,-0.079626,0.000702,0.001087,1e-05,0.05
194,615,-4109,271,-3,-195,-1.843,-4.401,-0.094999,-0.075072,0.000702,0.001036,1e-05,0.05
249,473,-3763,333,43,-129,-1.387,-4.482,-0.087044,-0.076479,0.000702,0.000989,1e-05,0.05
96,545,-4134,279,44,-66,-0.868,-4.099,-0.077976,-0.069792,0.000702,0.000923,1e-05,0.05
325,576,-4387,132,36,-13,-0.884,-4.019,-0.078261,-0.068401,0.000702,0.000872,1e-05,0.05
273,581,-4021,257,12,-29,-0.84,-4.174,-0.077497,-0.071112,0.000702,0.000827,1e-05,0.05
86,413,-3918,275,-42,1,-0.539,-3.781,-0.072239,-0.064252,0.000702,0.000796,1e-05,0.05
309,439,-4200,306,28,-26,-0.186,-3.764,-0.066078,-0.063941,0.000702,0.000772,1e-05,0.05
252,387,-4243,200,-7,44,0.209,-3.747,-0.059183,-0.063661,0.000702,0.000755,1e-05,0.05
240,519,-4127,198,-15,52,0.145,-3.526,-0.060293,-0.059795,0.000702,0.000748,1e-05,0.05
220,430,-4369,196,13,83,0.124,-3.436,-0.06067,-0.058229,0.000702,0.000742,1e-05,0.05
187,214,-3751,391,6,169,0.771,-3.355,-0.049379,-0.056815,0.000702,0.000753,1e-05,0.05
292,244,-4270,13,52,142,1.109,-3.246,-0.043471,-0.054909,0.000702,0.00077,1e-05,0.05
220,541,-3938,289,7,95,0.942,-3.207,-0.046389,-0.054221,0.000702,0.000772,1e-05,0.05
217,80,-4210,261,48,71,1.626,-3.233,-0.034446,-0.054676,0.000702,0.00076,1e-05,0.05
124,143,-4277,234,-41,65,2.028,-3.118,-0.027445,-0.05267,0.000702,0.000753,1e-05,0.05
201,-86,-3906,178,13,271,2.503,-3.052,-0.019144,-0.051519,0.000702,0.000771,1e-05,0.05
199,192,-3879,-12,14,366,2.622,-3.183,-0.017069,-0.053817,0.000702,0.000819,1e-05,0.05
96,202,-4057,21,26,333,2.178,-3.207,-0.024816,-0.054233,0.000702,0.000885,1e-05,0.05
224,-182,-3775,-127,76,355,2.237,-3.215,-0.02378,-0.054365,0.000702,0.000931,1e-05,0.05
199,2,-4154,3,-1,343,2.463,-3.205,-0.019844,-0.054194,0.000702,0.000971,1e-05,0.05
108,24,-3914,52,-45,284,2.503,-3.119,-0.019154,-0.052694,0.000702,0.000989,1e-05,0.05
304,-36,-4494,-26,57,316,2.614,-3.151,-0.0172,-0.053257,0.000702,0.001028,1e-05,0.05
293,-75,-3867,-170,-15,444,2.478,-3.126,-0.019587,-0.052812,0.000702,0.001071,1e-05,0.05
87,-98,-3720,-112,0,438,2.384,-3.03,-0.021222,-0.051147,0.000702,0.001114,1e-05,0.05
234,47,-4625,-176,21,275,2.209,-2.987,-0.024285,-0.050391,0.000702,0.001141,1e-05,0.05
366,-145,-4221,-243,15,295,2.013,-2.98,-0.02769,-0.050274,0.000702,0.001152,1e-05,0.05
215,-150,-3950,-277,-64,399,1.816,-3.022,-0.031137,-0.050991,0.000702,0.001163,1e-05,0.05
101,-53,-4106,-275,-74,435,1.562,-2.795,-0.035562,-0.047038,0.000702,0.001198,1e-05,0.05
152,-28,-4028,-308,-11,354,1.159,-2.599,-0.042604,-0.04362,0.000702,0.001214,1e-05,0.05
257,-38,-4092,-235,-25,316,0.905,-2.58,-0.047034,-0.04329,0.000702,0.001212,1e-05,0.05
182,28,-4163,-303,-63,356,0.662,-2.503,-0.051276,-0.041944,0.000702,0.001221,1e-05,0.05
192,72,-4065,-370,-15,207,0.126,-2.398,-0.060637,-0.040111,0.000702,0.001198,1e-05,0.05
268,65,-4163,-286,-28,152,-0.314,-2.446,-0.068319,-0.040944,0.000702,0.001119,1e-05,0.05
253,68,-4079,-274,-20,38,-0.602,-2.614,-0.073347,-0.04387,0.000702,0.001019,1e-05,0.05
108,98,-3977,-139,49,-12,-0.646,-2.624,-0.074103,-0.044056,0.000702,0.000937,1e-05,0.05
301,188,-4177,-372,-42,-79,-0.768,-2.78,-0.07624,-0.046771,0.000702,0.000881,1e-05,0.05
279,387,-4124,-408,19,-83,-1.439,-3.102,-0.087951,-0.052389,0.000702,0.000866,1e-05,0.05
88,284,-4052,-235,-32,-155,-1.84,-2.865,-0.094953,-0.04825,0.000702,0.000844,1e-05,0.05
455,277,-4336,-224,81,-293,-2.138,-3.091,-0.100154,-0.052206,0.000702,0.000853,1e-05,0.05
-21,281,-4018,-71,49,-172,-2.206,-3.257,-0.101336,-0.055106,0.000702,0.000885,1e-05,0.05
268,281,-3810,-274,54,-180,-2.104,-3.341,-0.099553,-0.056569,0.000702,0.00087,1e-05,0.05
122,541,-3503,-7,48,-212,-2.391,-3.546,-0.104558,-0.060141,0.000702,0.000894,1e-05,0.05
70,531,-4758,-68,57,-204,-2.156,-3.55,-0.100469,-0.060214,0.000702,0.00091,1e-05,0.05
329,623,-4072,-127,99,-168,-2.421,-3.673,-0.105085,-0.062359,0.000702,0.000905,1e-05,0.05
352,495,-3867,-54,55,-306,-2.621,-3.989,-0.108585,-0.067867,0.000702,0.00094,1e-05,0.05
73,627,-4291,-41,200,-216,-2.665,-3.984,-0.109346,-0.067793,0.000702,0.000967,1e-05,0.05
295,518,-4509,66,1,-287,-2.407,-3.931,-0.104844,-0.066868,0.000702,0.000977,1e-05,0.05
374,445,-3350,30,39,-300,-2.641,-4.186,-0.108927,-0.071321,0.000702,0.001002,1e-05,0.05
-46,647,-3899,237,90,-367,-2.787,-4.244,-0.111473,-0.072328,0.000702,0.001043,1e-05,0.05
298,654,-4556,47,101,-451,-2.358,-4.174,-0.103981,-0.071102,0.000702,0.001081,1e-05,0.05
259,738,-3980,43,159,-454,-2.522,-4.409,-0.106846,-0.075198,0.000702,0.001127,1e-05,0.05
-210,583,-4006,218,171,-312,-2.514,-4.27,-0.106716,-0.072777,0.000702,0.001155,1e-05,0.05
503,554,-4158,215,113,-211,-2.092,-4.351,-0.099345,-0.074188,0.000702,0.001116,1e-05,0.05
272,625,-3904,301,79,-266,-1.894,-4.794,-0.095885,-0.081932,0.000702,0.001084,1e-05,0.05
70,610,-4335,326,-25,-213,-1.479,-4.241,-0.088641,-0.072268,0.000702,0.001062,1e-05,0.05
239,544,-4116,240,88,-160,-1.13,-4.195,-0.082546,-0.071477,0.000702,0.001025,1e-05,0.05
201,564,-3926,210,32,-115,-1.055,-4.214,-0.081253,-0.0718,0.000702,0.000984,1e-05,0.05
167,595,-4113,157,29,-149,-1.153,-4.106,-0.082948,-0.069914,0.000702,0.000964,1e-05,0.05
276,514,-4294,270,-14,-166,-0.825,-3.821,-0.077226,-0.064947,0.000702,0.000917,1e-05,0.05
232,506,-4159,190,-5,-126,-0.676,-3.908,-0.074622,-0.066469,0.000702,0.000902,1e-05,0.05
152,481,-4047,255,15,-58,-0.543,-3.748,-0.072317,-0.063662,0.000702,0.000861,1e-05,0.05
253,378,-4141,345,-41,4,-0.187,-3.528,-0.066088,-0.059838,0.000702,0.000826,1e-05,0.05
236,499,-4035,330,-2,-23,0.22,-3.563,-0.058986,-0.060436,0.000702,0.000797,1e-05,0.05
107,306,-4115,206,31,33,0.596,-3.436,-0.052422,-0.058231,0.000702,0.000773,1e-05,0.05
314,411,-4108,172,13,99,0.676,-3.259,-0.051031,-0.05514,0.000702,0.000768,1e-05,0.05
133,234,-4149,171,16,178,0.758,-3.268,-0.049597,-0.055296,0.000702,0.000778,1e-05,0.05
224,361,-4162,218,-1,117,1.013,-3.031,-0.045153,-0.051148,0.000702,0.000793,1e-05,0.05
261,68,-3607,138,51,196,1.371,-2.957,-0.038899,-0.04986,0.000702,0.000807,1e-05,0.05
7,457,-4875,224,10,151,1.676,-2.996,-0.033581,-0.050541,0.000702,0.000837,1e-05,0.05
532,26,-4055,250,-62,122,2.051,-2.898,-0.027037,-0.048828,0.000702,0.000828,1e-05,0.05
378,-2,-4270,80,15,261,2.478,-3.289,-0.019589,-0.055665,0.000702,0.00084,1e-05,0.05
208,131,-4052,8,-126,323,2.377,-3.104,-0.021351,-0.052434,0.000702,0.000887,1e-05,0.05
233,-30,-3999,-112,18,433,2.207,-3.032,-0.02431,-0.051165,0.000702,0.000937,1e-05,0.05
232,-60,-4051,-86,-43,492,2.211,-2.962,-0.024237,-0.049957,0.000702,0.000993,1e-05,0.05
112,1,-4080,72,149,410,2.301,-2.903,-0.022678,-0.048924,0.000702,0.001042,1e-05,0.05
225,-214,-4145,-185,8,326,2.323,-2.914,-0.022297,-0.049109,0.000702,0.001078,1e-05,0.05
241,110,-3610,-114,-18,407,2.066,-3.053,-0.026775,-0.051547,0.000702,0.001112,1e-05,0.05
116,-99,-4381,-149,-82,477,2.108,-2.909,-0.026033,-0.049025,0.000702,0.001159,1e-05,0.05
283,-64,-4103,-134,-14,425,2.024,-2.809,-0.027499,-0.047279,0.000702,0.001198,1e-05,0.05
168,62,-4065,-192,-55,328,1.642,-2.783,-0.034171,-0.046824,0.000702,0.001214,1e-05,0.05
97,-4,-4108,-216,35,301,1.529,-2.693,-0.036138,-0.045252,0.000702,0.001218,1e-05,0.05
334,81,-4158,-251,36,116,1.107,-3.088,-0.043515,-0.05215,0.000702,0.001125,1e-05,0.05
309,-89,-4112,-227,-51,74,0.89,-3.28,-0.047294,-0.05551,0.000702,0.001018,1e-05,0.05
236,-22,-4138,-156,-7,-39,0.966,-3.226,-0.045967,-0.054561,0.000702,0.000939,1e-05,0.05
187,3,-4184,-185,39,-84,0.944,-3.28,-0.046362,-0.055493,0.000702,0.000884,1e-05,0.05
274,11,-4098,-265,-32,-10,0.738,-3.349,-0.049958,-0.056714,0.000702,0.000842,1e-05,0.05
169,4,-4135,-342,-23,123,0.37,-3.17,-0.056381,-0.053577,0.000702,0.000819,1e-05,0.05
269,84,-4137,-386,-16,84,-0.154,-3.138,-0.065521,-0.053028,0.000702,0.000814,1e-05,0.05
212,86,-3935,-296,-28,76,-0.543,-3.053,-0.072305,-0.051546,0.000702,0.000793,1e-05,0.05
192,186,-4184,-260,9,-38,-0.847,-3.11,-0.077616,-0.052539,0.000702,0.00077,1e-05,0.05
298,204,-3953,-311,52,-47,-1.174,-3.276,-0.083326,-0.055425,0.000702,0.000759,1e-05,0.05
352,395,-4139,-212,-19,-109,-1.584,-3.351,-0.090478,-0.056743,0.000702,0.000752,1e-05,0.05
157,203,-4194,-303,-29,-67,-1.89,-3.427,-0.095813,-0.058061,0.000702,0.000755,1e-05,0.05
154,385,-4134,-115,-17,-109,-2.261,-3.529,-0.102288,-0.059853,0.000702,0.000745,1e-05,0.05
242,303,-3697,-106,46,-196,-2.236,-3.648,-0.101861,-0.061921,0.000702,0.000762,1e-05,0.05
83,369,-4086,-109,163,-320,-2.102,-3.851,-0.099514,-0.065463,0.000702,0.000817,1e-05,0.05
150,573,-3414,-39,73,-412,-2.422,-3.988,-0.105104,-0.067864,0.000702,0.000881,1e-05,0.05
278,526,-4233,16,45,-510,-2.512,-4.345,-0.106678,-0.074091,0.000702,0.000951,1e-05,0.05
183,414,-4120,-80,-47,-565,-2.352,-4.607,-0.103883,-0.078659,0.000702,0.001016,1e-05,0.05
-60,478,-3922,-75,96,-453,-2.447,-4.779,-0.105543,-0.081658,0.000702,0.001072,1e-05,0.05
257,436,-4116,-6,74,-446,-2.294,-4.898,-0.102878,-0.083741,0.000702,0.001109,1e-05,0.05
517,512,-4268,-16,-135,-482,-2.142,-5.03,-0.100219,-0.086048,0.000702,0.001153,1e-05,0.05
-123,536,-3691,9,68,-351,-2.399,-5.219,-0.1047,-0.089341,0.000702,0.001195,1e-05,0.05
142,503,-4120,100,85,-384,-2.331,-5.121,-0.103521,-0.08763,0.000702,0.001213,1e-05,0.05
242,530,-4384,14,113,-313,-2.13,-5.247,-0.100011,-0.089829,0.000702,0.001203,1e-05,0.05
139,591,-3917,108,24,-319,-2.269,-5.339,-0.102436,-0.091441,0.000702,0.001201,1e-05,0.05
89,476,-3971,99,44,-259,-2.223,-5.217,-0.10163,-0.089306,0.000702,0.001192,1e-05,0.05
282,542,-4026,141,66,-248,-2.052,-5.067,-0.098645,-0.086698,0.000702,0.001156,1e-05,0.05
242,663,-4189,219,-11,-303,-1.785,-5.046,-0.09399,-0.086328,0.000702,0.001141,1e-05,0.05
163,607,-4074,228,67,-251,-1.709,-4.903,-0.092666,-0.083828,0.000702,0.001127,1e-05,0.05
271,565,-4052,209,49,-207,-1.444,-4.736,-0.088034,-0.080915,0.000702,0.001092,1e-05,0.05
395,654,-4245,171,53,-204,-1.344,-4.8,-0.086294,-0.082028,0.000702,0.001069,1e-05,0.05
129,596,-4219,230,-31,-190,-1.313,-4.412,-0.085741,-0.07526,0.000702,0.00102,1e-05,0.05
228,397,-3979,301,37,-138,-0.995,-4.216,-0.080204,-0.071841,0.000702,0.000987,1e-05,0.05
255,447,-4106,321,-7,-87,-0.367,-4.163,-0.069231,-0.070911,0.000702,0.00094,1e-05,0.05
257,543,-4187,240,-14,-118,-0.115,-4.086,-0.06484,-0.069564,0.000702,0.000908,1e-05,0.05
109,455,-4099,225,-31,23,0.056,-3.805,-0.061859,-0.064658,0.000702,0.00086,1e-05,0.05
136,402,-4099,171,7,81,0.174,-3.514,-0.0598,-0.059588,0.000702,0.000826,1e-05,0.05
275,348,-4205,203,6,186,0.33,-3.447,-0.057076,-0.058424,0.000702,0.000822,1e-05,0.05
198,394,-4021,172,-26,213,0.411,-3.34,-0.05566,-0.056554,0.000702,0.000845,1e-05,0.05
110,283,-4075,169,-36,246,0.52,-3.182,-0.053761,-0.05379,0.000702,0.000865,1e-05,0.05
268,333,-3924,229,-124,179,0.64,-3.154,-0.051665,-0.053294,0.000702,0.000863,1e-05,0.05
142,216,-4431,149,42,118,0.877,-3.245,-0.047527,-0.054899,0.000702,0.000853,1e-05,0.05
149,267,-4064,289,30,-4,1.2,-2.97,-0.041887,-0.050086,0.000702,0.000813,1e-05,0.05
413,69,-4065,212,-21,138,1.764,-3.317,-0.032048,-0.056153,0.000702,0.000797,1e-05,0.05
127,70,-3637,168,44,186,2.163,-3.312,-0.025074,-0.056057,0.000702,0.000808,1e-05,0.05
83,158,-4571,99,25,248,2.297,-3.003,-0.022738,-0.050664,0.000702,0.000829,1e-05,0.05
509,97,-4340,-21,59,280,2.317,-3.064,-0.022392,-0.051726,0.000702,0.000875,1e-05,0.05
-37,6,-4023,50,17,393,2.426,-3.009,-0.020499,-0.050764,0.000702,0.000929,1e-05,0.05
260,-8,-3713,-66,-42,440,2.596,-2.855,-0.017528,-0.048078,0.000702,0.000985,1e-05,0.05
255,81,-4175,-85,30,285,2.357,-3.048,-0.0217,-0.05145,0.000702,0.001021,1e-05,0.05
216,17,-4333,-62,-98,181,2.115,-2.943,-0.025911,-0.049626,0.000702,0.000997,1e-05,0.05
235,-51,-3913,-159,-51,280,2.079,-3.106,-0.026545,-0.052463,0.000702,0.000978,1e-05,0.05
114,-163,-3928,-48,-30,426,2.237,-2.945,-0.023786,-0.049649,0.000702,0.001012,1e-05,0.05
142,40,-4088,-116,6,382,2.245,-2.858,-0.023644,-0.048142,0.000702,0.001057,1e-05,0.05
246,56,-3956,-281,-1,273,1.686,-2.938,-0.033413,-0.049528,0.000702,0.001072,1e-05,0.05
94,18,-4015,-274,25,290,1.394,-2.888,-0.038508,-0.048652,0.000702,0.001075,1e-05,0.05
328,77,-4296,-362,-11,96,0.758,-2.974,-0.049606,-0.05016,0.000702,0.001007,1e-05,0.05
212,-97,-4154,-258,-31,139,0.561,-3.07,-0.053035,-0.051835,0.000702,0.000958,1e-05,0.05
168,0,-4073,-215,-5,132,0.459,-2.987,-0.054817,-0.050389,0.000702,0.00092,1e-05,0.05
236,32,-4131,-240,31,36,0.285,-2.974,-0.057854,-0.050164,0.000702,0.000868,1e-05,0.05
272,30,-4081,-257,-3,15,0.116,-3.104,-0.060814,-0.052437,0.000702,0.000828,1e-05,0.05
164,78,-4132,-278,29,-32,-0.095,-3.126,-0.064493,-0.052817,0.000702,0.000794,1e-05,0.05
260,73,-3842,-229,2,-41,-0.305,-3.126,-0.068152,-0.052809,0.000702,0.000777,1e-05,0.05
192,192,-4242,-279,1,-70,-0.503,-3.29,-0.071604,-0.055674,0.000702,0.000767,1e-05,0.05
195,214,-4273,-414,44,-120,-0.998,-3.245,-0.080245,-0.054894,0.000702,0.000765,1e-05,0.05
351,169,-4026,-373,-73,-132,-1.671,-3.285,-0.092004,-0.055586,0.000702,0.000776,1e-05,0.05
47,184,-3840,-274,58,-216,-1.905,-3.443,-0.096076,-0.058344,0.000702,0.000804,1e-05,0.05
81,236,-3717,-271,99,-198,-2.06,-3.404,-0.098786,-0.05767,0.000702,0.000838,1e-05,0.05
648,442,-4460,-144,-164,-307,-2.233,-3.545,-0.101807,-0.060134,0.000702,0.000865,1e-05,0.05
-105,595,-3865,-155,35,-391,-2.601,-3.975,-0.108225,-0.067624,0.000702,0.000907,1e-05,0.05
201,427,-4553,-132,-52,-395,-2.8,-3.873,-0.111699,-0.06585,0.000702,0.000958,1e-05,0.05
309,514,-3585,-126,145,-411,-2.966,-4.13,-0.114606,-0.070332,0.000702,0.001001,1e-05,0.05
-78,394,-3902,44,200,-184,-2.705,-4.278,-0.110042,-0.072918,0.000702,0.000996,1e-05,0.05
361,509,-3476,34,63,-329,-2.605,-4.41,-0.108296,-0.075232,0.000702,0.001025,1e-05,0.05
148,539,-4332,34,-12,-300,-2.555,-4.606,-0.107429,-0.078649,0.000702,0.001056,1e-05,0.05
31,667,-3929,-20,26,-389,-2.668,-4.535,-0.109392,-0.077407,0.000702,0.001084,1e-05,0.05
119,630,-3848,-22,27,-360,-2.767,-4.434,-0.111123,-0.075635,0.000702,0.001092,1e-05,0.05
125,765,-4191,58,131,-338,-2.914,-4.654,-0.113686,-0.079491,0.000702,0.001113,1e-05,0.05
202,620,-4137,158,97,-203,-2.799,-4.79,-0.111682,-0.081856,0.000702,0.001105,1e-05,0.05
163,548,-3651,240,-5,-254,-2.465,-4.677,-0.105852,-0.079878,0.000702,0.001079,1e-05,0.05
307,699,-3939,317,23,-348,-2.201,-4.79,-0.101246,-0.081857,0.000702,0.001093,1e-05,0.05
95,549,-4098,308,-51,-289,-1.76,-4.655,-0.093558,-0.079504,0.000702,0.001095,1e-05,0.05
108,633,-4143,331,76,-261,-1.37,-4.533,-0.086742,-0.077377,0.000702,0.001086,1e-05,0.05
216,471,-3802,298,-10,-271,-1.029,-4.445,-0.080798,-0.075839,0.000702,0.001067,1e-05,0.05
151,526,-4157,201,47,-152,-0.801,-4.411,-0.07681,-0.075244,0.000702,0.001029,1e-05,0.05
187,558,-4333,69,-13,-118,-0.891,-4.203,-0.078383,-0.071609,0.000702,0.000988,1e-05,0.05
230,571,-3911,224,-13,-116,-0.923,-4.009,-0.078946,-0.068227,0.000702,0.000923,1e-05,0.05
165,492,-4129,125,3,-59,-0.98,-3.895,-0.07993,-0.066237,0.000702,0.000877,1e-05,0.05
260,456,-3994,333,-9,-73,-0.736,-3.79,-0.075674,-0.064403,0.000702,0.000841,1e-05,0.05
205,542,-4334,376,-1,0,-0.303,-3.675,-0.068116,-0.062401,0.000702,0.000808,1e-05,0.05
112,358,-3646,290,50,82,0.091,-3.503,-0.061247,-0.059395,0.000702,0.000792,1e-05,0.05
259,384,-4067,323,-30,69,0.452,-3.386,-0.054935,-0.057358,0.000702,0.000778,1e-05,0.05
296,432,-4425,176,1,75,0.615,-3.418,-0.052105,-0.057908,0.000702,0.000766,1e-05,0.05
113,429,-3787,247,-9,-14,0.543,-3.145,-0.053355,-0.053151,0.000702,0.000754,1e-05,0.05
322,168,-4114,374,-61,42,0.947,-3.118,-0.046296,-0.052674,0.000702,0.000743,1e-05,0.05
-51,81,-3384,274,115,51,1.488,-3.281,-0.036864,-0.055528,0.000702,0.000737,1e-05,0.05
77,127,-3564,343,36,25,2.088,-2.981,-0.026392,-0.05028,0.000702,0.000729,1e-05,0.05
307,85,-4714,105,-10,244,2.496,-3.255,-0.019276,-0.055071,0.000702,0.000738,1e-05,0.05
44,178,-4322,45,-46,339,2.376,-3.197,-0.021362,-0.054045,0.000702,0.000801,1e-05,0.05
178,35,-3343,-1,68,407,2.258,-3.018,-0.023414,-0.050934,0.000702,0.000851,1e-05,0.05
230,-84,-4143,19,-13,531,2.448,-2.955,-0.020108,-0.04983,0.000702,0.000915,1e-05,0.05
75,277,-4318,74,3,398,2.44,-2.886,-0.020239,-0.048616,0.000702,0.00098,1e-05,0.05
191,-12,-4231,-80,69,334,2.41,-2.901,-0.020769,-0.048881,0.000702,0.001026,1e-05,0.05
420,20,-4203,-47,-53,332,2.31,-3.016,-0.022518,-0.050886,0.000702,0.001053,1e-05,0.05
124,-70,-3977,-71,10,277,2.259,-3.199,-0.023405,-0.054095,0.000702,0.001069,1e-05,0.05
213,-67,-4085,-158,-21,346,2.28,-3.02,-0.023044,-0.050971,0.000702,0.001084,1e-05,0.05
277,-50,-4431,-147,30,260,2.198,-2.978,-0.024476,-0.050235,0.000702,0.001096,1e-05,0.05
221,-110,-4113,-302,-24,214,1.819,-3.056,-0.031091,-0.051589,0.000702,0.001063,1e-05,0.05
183,-107,-4026,-375,-93,270,1.489,-2.852,-0.036839,-0.048024,0.000702,0.001065,1e-05,0.05
153,-36,-3958,-329,0,208,1.118,-2.652,-0.043312,-0.044546,0.000702,0.001056,1e-05,0.05
232,-6,-3919,-260,67,4,0.918,-2.711,-0.046803,-0.045572,0.000702,0.000971,1e-05,0.05
245,24,-4210,-307,23,-7,0.557,-3.003,-0.053112,-0.050673,0.000702,0.000898,1e-05,0.05
254,65,-4218,-340,-38,-33,0.122,-3.075,-0.060698,-0.051922,0.000702,0.000841,1e-05,0.05
189,61,-4024,-336,8,-45,-0.29,-3.058,-0.067885,-0.05162,0.000702,0.000812,1e-05,0.05
229,61,-4133,-291,24,-1,-0.532,-3.052,-0.072117,-0.05152,0.000702,0.000782,1e-05,0.05
264,158,-4210,-280,1,-50,-0.767,-3.141,-0.076222,-0.053071,0.000702,0.000765,1e-05,0.05
238,187,-4002,-277,31,-56,-1.051,-3.174,-0.08117,-0.053646,0.000702,0.000753,1e-05,0.05
394,290,-4293,-397,9,-93,-1.672,-3.332,-0.092022,-0.056402,0.000702,0.000752,1e-05,0.05
66,269,-3931,-352,-18,-103,-2.12,-3.199,-0.099831,-0.054082,0.000702,0.000745,1e-05,0.05
319,396,-3925,-215,43,-213,-2.511,-3.436,-0.106654,-0.05823,0.000702,0.00076,1e-05,0.05
295,348,-4053,-73,-2,-228,-2.469,-3.633,-0.105928,-0.061657,0.000702,0.00079,1e-05,0.05
215,456,-3868,-53,67,-433,-2.47,-3.769,-0.105949,-0.064036,0.000702,0.000848,1e-05,0.05
333,552,-4571,-1,46,-427,-2.574,-3.947,-0.107759,-0.067134,0.000702,0.00091,1e-05,0.05
196,511,-4470,-79,-16,-408,-2.4,-4.241,-0.104725,-0.072278,0.000702,0.000968,1e-05,0.05
-12,558,-3240,2,74,-395,-2.648,-4.381,-0.109049,-0.074713,0.000702,0.001018,1e-05,0.05
143,604,-4414,59,52,-367,-2.868,-4.516,-0.112893,-0.077072,0.000702,0.001067,1e-05,0.05
162,604,-4358,74,-20,-471,-2.519,-4.785,-0.106803,-0.081776,0.000702,0.001104,1e-05,0.05
132,514,-3479,-191,80,-452,-2.448,-4.93,-0.105566,-0.084295,0.000702,0.001147,1e-05,0.05
-72,755,-3743,-3,0,-462,-2.979,-5.03,-0.11483,-0.086039,0.000702,0.001188,1e-05,0.05
278,776,-4517,132,19,-499,-2.779,-5.109,-0.111332,-0.087431,0.000702,0.001213,1e-05,0.05
383,706,-4277,-1,-71,-535,-2.726,-5.469,-0.110406,-0.093707,0.000702,0.001236,1e-05,0.05
-200,568,-3392,133,-2,-450,-2.755,-5.467,-0.11091,-0.093669,0.000702,0.001263,1e-05,0.05
77,417,-3584,242,17,-254,-2.253,-5.293,-0.10215,-0.090643,0.000702,0.00124,1e-05,0.05
240,744,-4079,152,108,-282,-2.265,-5.457,-0.102361,-0.09349,0.000702,0.001215,1e-05,0.05
187,723,-4453,235,-12,-204,-1.986,-4.898,-0.097495,-0.083732,0.000702,0.001124,1e-05,0.05
253,616,-4129,222,19,-118,-1.649,-4.74,-0.091615,-0.080977,0.000702,0.001049,1e-05,0.05
255,600,-3708,247,-52,-161,-1.496,-4.648,-0.088941,-0.079382,0.000702,0.000975,1e-05,0.05
355,856,-3971,192,-54,-442,-1.731,-4.578,-0.093039,-0.078161,0.000702,0.001007,1e-05,0.05
-201,406,-3945,364,96,-259,-1.488,-4.613,-0.088795,-0.078762,0.000702,0.00105,1e-05,0.05
121,292,-4148,372,117,-59,-0.143,-3.77,-0.065332,-0.06405,0.000702,0.000963,1e-05,0.05
437,465,-4092,169,65,-9,0.045,-4.22,-0.062051,-0.071911,0.000702,0.000895,1e-05,0.05
133,621,-4204,300,-15,90,0.012,-4.163,-0.062615,-0.070908,0.000702,0.00085,1e-05,0.05
93,421,-4009,327,-4,11,0.197,-3.64,-0.059388,-0.061784,0.000702,0.000808,1e-05,0.05
379,381,-4147,128,6,36,0.398,-3.583,-0.055893,-0.06079,0.000702,0.000785,1e-05,0.05
224,419,-4053,198,-12,-14,0.308,-3.654,-0.05745,-0.062029,0.000702,0.000764,1e-05,0.05
163,397,-4343,333,-57,-123,0.72,-3.243,-0.050266,-0.054854,0.000702,0.000753,1e-05,0.05
355,158,-3879,108,48,-46,1.085,-3.2,-0.043893,-0.054099,0.000702,0.000752,1e-05,0.05
111,325,-4123,228,17,15,1.332,-3.326,-0.039577,-0.056296,0.000702,0.000741,1e-05,0.05
48,149,-3928,115,77,53,1.62,-3.029,-0.034553,-0.051116,0.000702,0.000733,1e-05,0.05
252,87,-3981,162,59,51,1.972,-3.007,-0.028419,-0.050733,0.000702,0.00073,1e-05,0.05
262,148,-4287,127,26,133,2.361,-3.138,-0.021633,-0.053016,0.000702,0.000739,1e-05,0.05
154,69,-4334,9,13,220,2.411,-3.056,-0.020752,-0.051594,0.000702,0.000769,1e-05,0.05
391,10,-4226,47,-112,295,2.524,-2.951,-0.018787,-0.049759,0.000702,0.000813,1e-05,0.05
47,64,-4005,-94,22,330,2.485,-3.064,-0.019459,-0.051733,0.000702,0.000852,1e-05,0.05
-5,-23,-4438,1,12,349,2.429,-2.975,-0.020442,-0.050175,0.000702,0.000897,1e-05,0.05
364,55,-4122,-147,-38,333,2.272,-3.022,-0.023175,-0.051002,0.000702,0.000948,1e-05,0.05
299,-45,-4274,-185,17,327,2.028,-3.157,-0.027441,-0.053354,0.000702,0.00098,1e-05,0.05
115,-117,-4032,-125,-45,389,2.007,-2.976,-0.027805,-0.050189,0.000702,0.001018,1e-05,0.05
301,-63,-4349,-106,4,361,2.046,-3.022,-0.02713,-0.050993,0.000702,0.001062,1e-05,0.05
174,-228,-3996,-70,-44,566,2.202,-2.891,-0.024406,-0.048707,0.000702,0.00112,1e-05,0.05
117,-160,-4155,-163,-5,664,2.358,-2.695,-0.021681,-0.045289,0.000702,0.001183,1e-05,0.05
230,73,-4265,-309,-7,665,1.784,-2.64,-0.031699,-0.044324,0.000702,0.001252,1e-05,0.05
265,183,-4073,-454,-18,393,0.863,-2.618,-0.047769,-0.043944,0.000702,0.001297,1e-05,0.05
213,120,-3788,-359,-6,274,-0.117,-2.531,-0.06487,-0.042437,0.000702,0.001278,1e-05,0.05
324,78,-4171,-243,2,98,-0.304,-2.726,-0.068131,-0.045834,0.000702,0.001191,1e-05,0.05
207,121,-4233,-146,-27,-11,-0.468,-2.881,-0.071007,-0.048534,0.000702,0.001035,1e-05,0.05
246,106,-4065,-60,24,-157,-0.387,-2.874,-0.069583,-0.048413,0.000702,0.000955,1e-05,0.05
228,115,-4080,-56,49,-170,-0.194,-3.057,-0.066212,-0.051602,0.000702,0.000944,1e-05,0.05
144,87,-4062,-138,-16,-30,-0.014,-3.049,-0.063074,-0.051473,0.000702,0.000892,1e-05,0.05
218,134,-4301,-208,-30,65,-0.124,-3.039,-0.065003,-0.051288,0.000702,0.000854,1e-05,0.05
220,264,-4193,-322,-31,-52,-0.775,-3.094,-0.076361,-0.052252,0.000702,0.000815,1e-05,0.05
255,220,-3761,-339,-26,-169,-1.45,-3.197,-0.088144,-0.05405,0.000702,0.000817,1e-05,0.05
104,313,-3777,-230,-12,-200,-2.067,-3.223,-0.098911,-0.054514,0.000702,0.000826,1e-05,0.05
273,346,-4267,-3,16,-203,-2.262,-3.413,-0.102316,-0.057822,0.000702,0.00085,1e-05,0.05
381,337,-4646,-122,47,-357,-2.117,-3.683,-0.099787,-0.062543,0.000702,0.000894,1e-05,0.05
88,384,-4198,-56,6,-403,-2.225,-3.841,-0.101673,-0.065289,0.000702,0.000947,1e-05,0.05
94,440,-3486,-9,79,-452,-2.043,-3.943,-0.098491,-0.067065,0.000702,0.000995,1e-05,0.05
69,468,-3686,30,96,-387,-2.258,-4.211,-0.102235,-0.071747,0.000702,0.001052,1e-05,0.05
211,441,-4180,130,98,-293,-1.996,-4.413,-0.097667,-0.075279,0.000702,0.00108,1e-05,0.05
383,402,-4591,-212,-19,-328,-1.787,-4.57,-0.094028,-0.078019,0.000702,0.001097,1e-05,0.05
163,659,-4074,-23,18,-280,-2.29,-4.53,-0.102798,-0.077323,0.000702,0.00111,1e-05,0.05
242,405,-3659,125,-3,-325,-2.169,-4.661,-0.100694,-0.079601,0.000702,0.001133,1e-05,0.05
222,519,-4461,-56,-39,-309,-2.062,-4.67,-0.098817,-0.079767,0.000702,0.00114,1e-05,0.05
311,636,-4244,167,-51,-384,-2.238,-4.606,-0.101896,-0.078645,0.000702,0.001159,1e-05,0.05
160,438,-3986,71,46,-439,-2.033,-4.717,-0.098323,-0.080589,0.000702,0.001183,1e-05,0.05
30,480,-3756,86,106,-332,-1.965,-4.752,-0.097135,-0.081191,0.000702,0.001201,1e-05,0.05
83,501,-4021,137,53,-276,-1.965,-4.693,-0.097127,-0.080159,0.000702,0.001204,1e-05,0.05
376,607,-4075,46,39,-247,-1.944,-4.661,-0.096766,-0.07961,0.000702,0.001166,1e-05,0.05
205,545,-4305,66,1,-178,-2.062,-4.715,-0.098825,-0.080547,0.000702,0.001135,1e-05,0.05
134,618,-3993,134,-21,-278,-2.122,-4.601,-0.099866,-0.078566,0.000702,0.001099,1e-05,0.05
203,494,-3786,177,16,-338,-1.91,-4.44,-0.09617,-0.075748,0.000702,0.001108,1e-05,0.05
275,560,-4116,240,-1,-304,-1.609,-4.485,-0.090907,-0.076536,0.000702,0.00111,1e-05,0.05
150,558,-4237,226,34,-291,-1.389,-4.553,-0.087066,-0.077713,0.000702,0.001114,1e-05,0.05
46,451,-4069,214,57,-215,-1.155,-4.37,-0.082988,-0.074525,0.000702,0.0011,1e-05,0.05
155,412,-4022,241,59,-7,-0.786,-3.986,-0.076548,-0.067819,0.000702,0.001005,1e-05,0.05
268,410,-4102,76,-11,81,-0.534,-3.897,-0.072145,-0.066263,0.000702,0.000925,1e-05,0.05
237,526,-4118,161,-6,101,-0.666,-3.832,-0.074452,-0.065134,0.000702,0.000883,1e-05,0.05
162,411,-3971,180,-23,141,-0.473,-3.608,-0.071083,-0.061229,0.000702,0.000862,1e-05,0.05
360,475,-4149,181,-94,146,-0.372,-3.518,-0.069316,-0.059655,0.000702,0.000856,1e-05,0.05
267,388,-3933,254,-24,245,-0.2,-3.507,-0.066315,-0.059459,0.000702,0.000869,1e-05,0.05
41,387,-4089,231,-12,216,0.247,-3.293,-0.05852,-0.055733,0.000702,0.00089,1e-05,0.05
302,385,-4023,152,40,159,0.395,-3.3,-0.055942,-0.055849,0.000702,0.000882,1e-05,0.05
376,375,-4125,147,-28,103,0.457,-3.574,-0.05486,-0.06063,0.000702,0.000858,1e-05,0.05
141,324,-4047,92,83,51,0.453,-3.361,-0.054924,-0.056916,0.000702,0.000823,1e-05,0.05
222,329,-4429,257,54,-58,0.697,-3.135,-0.05066,-0.052975,0.000702,0.000795,1e-05,0.05
374,24,-4124,209,34,9,1.421,-3.553,-0.038037,-0.060272,0.000702,0.000772,1e-05,0.05
239,132,-4010,239,30,110,1.927,-3.445,-0.029198,-0.058375,0.000702,0.000761,1e-05,0.05
45,158,-4585,64,-82,216,2.217,-3.26,-0.024145,-0.055144,0.000702,0.000783,1e-05,0.05
392,66,-3856,-41,-12,325,2.193,-3.225,-0.024553,-0.054533,0.000702,0.00083,1e-05,0.05
54,60,-3786,121,56,515,2.191,-3.144,-0.024593,-0.053131,0.000702,0.000907,1e-05,0.05
230,-32,-4149,-121,-138,377,2.229,-3.028,-0.023934,-0.051109,0.000702,0.000958,1e-05,0.05
262,154,-3502,114,14,449,1.991,-3.109,-0.02808,-0.052524,0.000702,0.001007,1e-05,0.05
-17,-230,-4243,-284,-75,442,2.343,-2.942,-0.021941,-0.049595,0.000702,0.001074,1e-05,0.05
308,265,-3800,-111,-61,450,1.857,-2.878,-0.030415,-0.048478,0.000702,0.001118,1e-05,0.05
124,-148,-4334,-162,3,435,1.923,-2.983,-0.029274,-0.050317,0.000702,0.001164,1e-05,0.05
255,-38,-4092,-156,-22,351,1.789,-2.749,-0.031613,-0.046237,0.000702,0.001185,1e-05,0.05
244,-100,-4136,-68,-1,387,1.822,-2.686,-0.03103,-0.045136,0.000702,0.001201,1e-05,0.05
105,0,-4194,-151,18,322,1.968,-2.685,-0.028482,-0.045123,0.000702,0.00123,1e-05,0.05
207,59,-3844,-213,28,150,1.844,-2.671,-0.030642,-0.044876,0.000702,0.001185,1e-05,0.05
241,-14,-4047,-238,39,56,1.507,-3.006,-0.036524,-0.050728,0.000702,0.001051,1e-05,0.05
235,122,-4196,-357,-31,47,0.964,-3.215,-0.046014,-0.05437,0.000702,0.00096,1e-05,0.05
228,70,-4116,-421,-4,-61,0.319,-3.088,-0.057271,-0.052156,0.000702,0.000897,1e-05,0.05
250,14,-4021,-296,6,-12,-0.201,-3.23,-0.066345,-0.054637,0.000702,0.000854,1e-05,0.05
219,62,-4109,-139,3,-54,-0.119,-3.202,-0.064903,-0.054131,0.000702,0.000813,1e-05,0.05
259,97,-4219,-244,-26,-94,-0.167,-3.198,-0.065745,-0.054064,0.000702,0.000795,1e-05,0.05
229,170,-4089,-207,16,-72,-0.495,-3.303,-0.071471,-0.055899,0.000702,0.000783,1e-05,0.05
191,218,-4285,-255,-15,-71,-0.818,-3.311,-0.077105,-0.056035,0.000702,0.00077,1e-05,0.05
273,190,-4142,-353,7,-108,-1.282,-3.327,-0.085199,-0.056318,0.000702,0.000765,1e-05,0.05
158,271,-3993,-284,32,-151,-1.737,-3.389,-0.093149,-0.057408,0.000702,0.000778,1e-05,0.05
121,257,-3714,-150,-11,-90,-2.076,-3.341,-0.099064,-0.056568,0.000702,0.000783,1e-05,0.05
286,349,-3610,-72,26,-128,-2.128,-3.421,-0.09997,-0.057965,0.000702,0.000791,1e-05,0.05
272,453,-4468,-297,9,-335,-2.475,-3.629,-0.106026,-0.061586,0.000702,0.000833,1e-05,0.05
106,470,-4019,85,-85,-464,-2.637,-3.769,-0.108857,-0.064032,0.000702,0.000898,1e-05,0.05
233,328,-4190,-23,30,-465,-2.259,-3.918,-0.10226,-0.066643,0.000702,0.000963,1e-05,0.05
12,406,-3926,-68,44,-316,-2.352,-4.214,-0.103875,-0.071805,0.000702,0.001005,1e-05,0.05
294,410,-4185,52,34,-255,-2.286,-4.325,-0.102732,-0.073733,0.000702,0.001025,1e-05,0.05
19,595,-3904,-108,77,-302,-2.551,-4.559,-0.107354,-0.077821,0.000702,0.001033,1e-05,0.05
186,544,-3904,83,53,-147,-2.576,-4.289,-0.107788,-0.073111,0.000702,0.000991,1e-05,0.05
267,461,-3678,-31,-42,-261,-2.55,-4.275,-0.10734,-0.072872,0.000702,0.000983,1e-05,0.05
60,588,-3738,22,46,-179,-2.634,-4.317,-0.108803,-0.073593,0.000702,0.000958,1e-05,0.05
216,733,-4407,124,40,-270,-2.625,-4.295,-0.108638,-0.073214,0.000702,0.000968,1e-05,0.05
306,631,-4123,154,83,-196,-2.52,-4.435,-0.106814,-0.075654,0.000702,0.000979,1e-05,0.05
177,549,-3903,180,51,-226,-2.228,-4.471,-0.101713,-0.076291,0.000702,0.000984,1e-05,0.05
134,542,-4007,220,65,-235,-1.959,-4.398,-0.097016,-0.075016,0.000702,0.000976,1e-05,0.05
364,574,-4333,260,-3,-246,-1.774,-4.444,-0.093791,-0.075822,0.000702,0.000975,1e-05,0.05
160,492,-3830,326,-14,-207,-1.312,-4.373,-0.085737,-0.074585,0.000702,0.000963,1e-05,0.05
101,483,-3842,252,16,-130,-1.007,-4.175,-0.080408,-0.07113,0.000702,0.000957,1e-05,0.05
285,594,-4105,168,28,-113,-0.924,-4.15,-0.078956,-0.070689,0.000702,0.000936,1e-05,0.05
115,485,-4066,208,46,-28,-0.797,-3.989,-0.076736,-0.067874,0.000702,0.000884,1e-05,0.05
258,519,-4183,153,75,75,-0.788,-3.892,-0.076591,-0.066189,0.000702,0.000837,1e-05,0.05
274,469,-3971,193,-14,161,-0.766,-3.831,-0.076199,-0.065113,0.000702,0.000842,1e-05,0.05
243,454,-4188,185,-19,105,-0.625,-3.698,-0.073737,-0.062806,0.000702,0.000835,1e-05,0.05
402,455,-4051,314,-65,98,-0.248,-3.594,-0.067154,-0.060977,0.000702,0.000837,1e-05,0.05
209,441,-3980,336,46,-63,0.264,-3.715,-0.05822,-0.06309,0.000702,0.000802,1e-05,0.05
235,337,-4052,217,-36,-5,0.638,-3.533,-0.05169,-0.059913,0.000702,0.000782,1e-05,0.05
276,371,-4205,134,-17,29,0.803,-3.47,-0.048825,-0.058815,0.000702,0.000763,1e-05,0.05
-3,313,-3974,170,17,68,0.829,-3.273,-0.048368,-0.055375,0.000702,0.000751,1e-05,0.05
309,183,-3695,150,25,-4,1.15,-3.321,-0.042755,-0.056213,0.000702,0.00074,1e-05,0.05
189,255,-4448,202,15,85,1.444,-3.384,-0.03763,-0.057313,0.000702,0.000735,1e-05,0.05
173,110,-4751,38,24,81,1.882,-3.132,-0.02998,-0.052914,0.000702,0.000749,1e-05,0.05
448,335,-3677,214,72,112,1.873,-3.415,-0.03014,-0.057854,0.000702,0.00076,1e-05,0.05
131,42,-4163,77,-2,-52,2.187,-3.529,-0.024669,-0.059852,0.000702,0.000748,1e-05,0.05
95,214,-3668,238,103,167,2.303,-3.293,-0.022639,-0.055724,0.000702,0.000746,1e-05,0.05
396,45,-4488,126,-8,191,2.678,-3.412,-0.016085,-0.057799,0.000702,0.000778,1e-05,0.05
84,-144,-3868,-60,45,451,2.774,-3.34,-0.01442,-0.056546,0.000702,0.000831,1e-05,0.05
206,-452,-4310,-112,50,634,3.276,-3.3,-0.005653,-0.055859,0.000702,0.000907,1e-05,0.05
205,4,-4138,-257,84,581,3.28,-3.382,-0.005587,-0.057279,0.000702,0.000978,1e-05,0.05
432,-176,-4156,-441,-145,522,2.501,-3.392,-0.019179,-0.057459,0.000702,0.001043,1e-05,0.05
298,40,-3605,-444,89,221,1.442,-3.551,-0.037657,-0.060226,0.000702,0.001059,1e-05,0.05
130,-55,-4410,-306,-16,112,0.917,-3.606,-0.046823,-0.061187,0.000702,0.001006,1e-05,0.05
399,261,-3873,-101,15,-58,0.657,-3.482,-0.051357,-0.059022,0.000702,0.000924,1e-05,0.05
215,321,-4070,-46,68,-156,0.422,-3.781,-0.055458,-0.064237,0.000702,0.000886,1e-05,0.05
164,199,-3995,263,19,-73,0.53,-3.717,-0.053589,-0.063125,0.000702,0.000867,1e-05,0.05
195,284,-4110,-25,-7,-4,-0.165,-2.681,-0.06571,-0.045043,0.047619,0.047633,1e-05,0.05
195,284,-4110,-16,-6,-4,-0.259,-2.743,-0.067345,-0.04613,0.024393,0.0244,1e-05,0.05
206,301,-4114,-12,-5,-6,-0.367,-2.813,-0.069244,-0.047352,0.016399,0.016406,1e-05,0.05
229,1435,-1842,419,-483,53,-2.37,-3.004,-0.104203,-0.050687,0.001374,0.00154,1e-05,0.05
790,-947,-7374,-61,89,-62,-1.206,-3.472,-0.083878,-0.058846,0.001156,0.001345,1e-05,0.05
-148,1007,-2528,650,-122,112,-1.719,-2.794,-0.092828,-0.047013,0.001019,0.001174,1e-05,0.05
482,-137,-5414,178,-52,65,-1.277,-2.99,-0.085114,-0.050437,0.000928,0.001076,1e-05,0.05
157,264,-4271,149,3,-12,-0.073,-2.781,-0.064103,-0.046787,0.000866,0.000974,1e-05,0.05
249,27,-3996,121,20,-10,0.613,-2.951,-0.052129,-0.049767,0.000826,0.000905,1e-05,0.05
200,-32,-4053,94,-10,-10,1.402,-2.937,-0.038355,-0.04951,0.000791,0.000846,1e-05,0.05
231,-26,-4176,-64,4,-9,1.817,-2.949,-0.031115,-0.049725,0.000768,0.000808,1e-05,0.05
216,30,-4161,-241,-3,9,1.699,-3.004,-0.033171,-0.05069,0.000751,0.000781,1e-05,0.05
186,-16,-4096,-264,22,8,1.382,-3.009,-0.038706,-0.050767,0.000739,0.000761,1e-05,0.05
262,4,-4078,-136,22,-48,1.265,-3.075,-0.040753,-0.051931,0.00073,0.000747,1e-05,0.05
211,35,-4203,-91,-14,-50,1.251,-3.107,-0.041005,-0.052476,0.000723,0.000742,1e-05,0.05
286,65,-4189,-120,-23,-21,1.244,-3.164,-0.041119,-0.053475,0.000718,0.000734,1e-05,0.05
151,90,-3980,-73,-6,3,1.228,-3.122,-0.041398,-0.052749,0.000714,0.000728,1e-05,0.05
216,195,-4042,-81,21,-31,1.111,-3.114,-0.043445,-0.052598,0.000711,0.000721,1e-05,0.05
266,152,-4025,-96,-13,-11,0.967,-3.21,-0.045951,-0.054284,0.000709,0.000717,1e-05,0.05
165,152,-4030,-100,14,-29,0.833,-3.163,-0.048292,-0.053457,0.000707,0.000714,1e-05,0.05
249,182,-4092,-102,-10,-9,0.634,-3.17,-0.051764,-0.053584,0.000706,0.000712,1e-05,0.05
192,226,-4091,-85,-3,-15,0.451,-3.175,-0.054959,-0.05367,0.000705,0.00071,1e-05,0.05
218,256,-4117,-88,2,-22,0.187,-3.13,-0.059569,-0.052884,0.000704,0.000709,1e-05,0.05
219,254,-4112,-99,-2,-9,-0.026,-3.161,-0.063286,-0.053428,0.000704,0.000708,1e-05,0.05
201,265,-4118,-107,-1,-31,-0.292,-3.114,-0.067928,-0.052606,0.000703,0.000707,1e-05,0.05
248,262,-4091,-93,-2,-43,-0.491,-3.147,-0.071406,-0.053185,0.000703,0.000708,1e-05,0.05
215,254,-4104,-71,3,-44,-0.572,-3.18,-0.072818,-0.053755,0.000703,0.00071,1e-05,0.05
207,294,-4101,-114,1,-53,-0.766,-3.143,-0.076193,-0.053117,0.000703,0.000712,1e-05,0.05
235,313,-4101,-143,1,-75,-1.033,-3.174,-0.080869,-0.053656,0.000703,0.000716,1e-05,0.05
196,316,-4097,-121,0,-74,-1.294,-3.203,-0.085409,-0.054154,0.000702,0.000723,1e-05,0.05
218,331,-4108,-57,1,-84,-1.464,-3.21,-0.088379,-0.054279,0.000702,0.000727,1e-05,0.05
221,316,-4117,-43,6,-56,-1.486,-3.234,-0.08876,-0.054706,0.000702,0.000727,1e-05,0.05
202,348,-4116,-65,-8,-71,-1.524,-3.226,-0.089431,-0.05456,0.000702,0.000727,1e-05,0.05
214,312,-4071,-3,-4,-31,-1.557,-3.189,-0.090013,-0.053908,0.000702,0.000725,1e-05,0.05
174,332,-4038,25,25,-87,-1.436,-3.186,-0.087886,-0.053852,0.000702,0.000725,1e-05,0.05
354,393,-4117,-53,19,-134,-1.492,-3.25,-0.08887,-0.054977,0.000702,0.000737,1e-05,0.05
170,424,-4026,-78,31,-217,-1.71,-3.407,-0.092674,-0.057713,0.000702,0.000769,1e-05,0.05
236,452,-4061,-4,6,-356,-1.874,-3.479,-0.095543,-0.058966,0.000702,0.000812,1e-05,0.05
197,260,-4306,74,92,-350,-1.598,-3.712,-0.090727,-0.063034,0.000702,0.000871,1e-05,0.05
169,170,-4086,106,35,-195,-1.053,-3.761,-0.081213,-0.063901,0.000702,0.000902,1e-05,0.05
200,449,-4086,14,-30,-89,-0.851,-3.629,-0.077683,-0.061585,0.000702,0.00088,1e-05,0.05
195,473,-3978,36,29,-148,-1.146,-3.639,-0.082825,-0.061763,0.000702,0.000859,1e-05,0.05
208,473,-4075,13,51,-41,-1.348,-3.637,-0.08636,-0.061732,0.000702,0.000835,1e-05,0.05
161,475,-4143,-18,-13,110,-1.656,-3.458,-0.09173,-0.058607,0.000702,0.000809,1e-05,0.05
241,587,-4052,140,18,56,-1.79,-3.422,-0.094074,-0.057972,0.000702,0.00079,1e-05,0.05
198,502,-4148,173,3,101,-1.581,-3.325,-0.09043,-0.056289,0.000702,0.000783,1e-05,0.05
287,540,-3959,264,15,68,-1.343,-3.379,-0.086268,-0.057231,0.000702,0.000773,1e-05,0.05
233,412,-4147,210,8,117,-0.922,-3.368,-0.078925,-0.05703,0.000702,0.000773,1e-05,0.05
197,418,-4148,144,-25,78,-0.75,-3.231,-0.075918,-0.054653,0.000702,0.000774,1e-05,0.05
281,473,-4154,159,-12,-11,-0.684,-3.283,-0.074776,-0.05556,0.000702,0.000759,1e-05,0.05
264,351,-4169,125,-22,-19,-0.437,-3.34,-0.07045,-0.056552,0.000702,0.000746,1e-05,0.05
192,241,-4114,213,-3,-19,-0.065,-3.246,-0.063961,-0.054913,0.000702,0.000736,1e-05,0.05
249,198,-4052,258,-2,11,0.505,-3.213,-0.054011,-0.054335,0.000702,0.000728,1e-05,0.05
195,187,-4045,264,-32,48,1.107,-3.22,-0.043518,-0.054452,0.000702,0.000723,1e-05,0.05
197,158,-4000,96,-51,129,1.497,-3.092,-0.036696,-0.052225,0.000702,0.000732,1e-05,0.05
162,120,-4287,80,13,170,1.649,-3.021,-0.034056,-0.050976,0.000702,0.000757,1e-05,0.05
143,132,-4037,33,1,234,1.695,-3.027,-0.033254,-0.051078,0.000702,0.000798,1e-05,0.05
293,48,-3929,-47,-38,300,1.631,-3.055,-0.034365,-0.051577,0.000702,0.000833,1e-05,0.05
189,125,-4152,-83,-41,293,1.519,-2.963,-0.036314,-0.049971,0.000702,0.000877,1e-05,0.05
189,53,-3951,-26,-16,202,1.578,-2.834,-0.035292,-0.047718,0.000702,0.000904,1e-05,0.05
208,174,-4133,-46,23,36,1.498,-2.964,-0.036687,-0.049992,0.000702,0.000864,1e-05,0.05
277,84,-4292,-98,-1,51,1.471,-3.141,-0.037165,-0.053078,0.000702,0.000829,1e-05,0.05
154,33,-4061,-124,48,-9,1.328,-3.086,-0.039649,-0.052123,0.000702,0.000797,1e-05,0.05
279,71,-4027,-120,-18,-37,1.236,-3.131,-0.041254,-0.052909,0.000702,0.000775,1e-05,0.05
255,-60,-4040,-76,-43,110,1.41,-3.202,-0.038221,-0.054141,0.000702,0.000763,1e-05,0.05
71,-170,-4062,-174,9,254,1.749,-3.013,-0.03231,-0.050833,0.000702,0.000797,1e-05,0.05
223,-153,-4289,-359,-19,361,1.592,-2.928,-0.03504,-0.04936,0.000702,0.000847,1e-05,0.05
317,156,-4118,-373,-33,336,0.919,-2.882,-0.046792,-0.048561,0.000702,0.000903,1e-05,0.05
194,266,-4131,-400,-3,162,-0.088,-2.841,-0.064376,-0.047837,0.000702,0.000915,1e-05,0.05
353,308,-4092,-354,15,-65,-0.957,-3.039,-0.079528,-0.051299,0.000702,0.000868,1e-05,0.05
84,502,-3864,-49,2,-100,-1.564,-3.242,-0.090129,-0.054841,0.000702,0.000837,1e-05,0.05
315,289,-4268,-94,-1,-82,-1.604,-3.22,-0.090822,-0.054463,0.000702,0.000812,1e-05,0.05
255,581,-4117,-77,-87,-127,-1.95,-3.343,-0.096873,-0.056597,0.000702,0.000805,1e-05,0.05
263,499,-4068,176,20,-107,-2.025,-3.396,-0.098169,-0.057524,0.000702,0.000801,1e-05,0.05
229,421,-4023,123,-15,-55,-1.601,-3.374,-0.090775,-0.057146,0.000702,0.000787,1e-05,0.05
216,560,-4002,149,-3,-118,-1.577,-3.356,-0.090363,-0.056831,0.000702,0.00078,1e-05,0.05
130,396,-4116,230,30,-29,-1.292,-3.271,-0.085373,-0.055347,0.000702,0.000769,1e-05,0.05
263,376,-4121,125,-2,13,-1.073,-3.289,-0.081558,-0.055663,0.000702,0.000756,1e-05,0.05
193,415,-4173,68,-39,17,-0.913,-3.228,-0.078774,-0.054587,0.000702,0.000743,1e-05,0.05
236,169,-4064,-81,-23,43,-0.953,-3.157,-0.079461,-0.053358,0.000702,0.000736,1e-05,0.05
253,349,-3974,106,0,-24,-0.749,-3.276,-0.075909,-0.055434,0.000702,0.000728,1e-05,0.05
174,273,-4139,20,-15,-12,-0.619,-3.266,-0.073641,-0.055251,0.000702,0.000724,1e-05,0.05
207,282,-4117,36,19,64,-0.594,-3.155,-0.073202,-0.053322,0.000702,0.000722,1e-05,0.05
217,179,-4097,17,-21,79,-0.428,-3.127,-0.070296,-0.052836,0.000702,0.000726,1e-05,0.05
245,286,-4094,20,25,20,-0.444,-3.146,-0.070589,-0.053165,0.000702,0.000726,1e-05,0.05
337,363,-4036,117,-44,-27,-0.372,-3.184,-0.06932,-0.053831,0.000702,0.00072,1e-05,0.05
161,317,-4035,90,-1,-32,-0.282,-3.287,-0.067751,-0.055621,0.000702,0.000718,1e-05,0.05
195,320,-4153,116,-9,-5,-0.08,-3.178,-0.06422,-0.053727,0.000702,0.000715,1e-05,0.05
211,287,-4071,173,8,10,0.252,-3.158,-0.05843,-0.053377,0.000702,0.000712,1e-05,0.05
191,281,-4092,172,-2,31,0.584,-3.114,-0.052646,-0.05261,0.000702,0.00071,1e-05,0.05
233,215,-4075,97,0,54,0.919,-3.098,-0.046791,-0.052317,0.000702,0.000711,1e-05,0.05
145,57,-4184,-9,-9,84,1.14,-3.0,-0.042938,-0.050606,0.000702,0.000718,1e-05,0.05
334,81,-4168,-91,-20,-60,1.132,-3.091,-0.043081,-0.052209,0.000702,0.000716,1e-05,0.05
179,211,-4037,17,52,-54,1.034,-3.149,-0.044781,-0.053211,0.000702,0.000718,1e-05,0.05
191,119,-4213,-56,10,55,1.117,-2.966,-0.043331,-0.050022,0.000702,0.000716,1e-05,0.05
201,169,-4124,-88,21,72,1.007,-3.027,-0.045254,-0.051081,0.000702,0.000722,1e-05,0.05
271,80,-4178,-99,-18,2,0.869,-3.079,-0.047657,-0.051995,0.000702,0.00072,1e-05,0.05
219,225,-4053,-42,-7,-112,0.672,-3.157,-0.051107,-0.053353,0.000702,0.000723,1e-05,0.05
190,191,-4055,19,38,-96,0.638,-3.241,-0.051703,-0.054824,0.000702,0.000733,1e-05,0.05
203,135,-4154,9,-13,4,0.781,-3.133,-0.049207,-0.052932,0.000702,0.000727,1e-05,0.05
250,219,-4216,-14,9,8,0.71,-3.147,-0.050438,-0.053175,0.000702,0.000721,1e-05,0.05
216,215,-4182,-38,-7,-3,0.589,-3.108,-0.052545,-0.052506,0.000702,0.000716,1e-05,0.05
353,355,-4138,77,-161,54,0.428,-3.164,-0.055368,-0.053478,0.000702,0.000713,1e-05,0.05
35,-20,-4188,-81,-32,27,0.522,-3.008,-0.053719,-0.050751,0.000702,0.000712,1e-05,0.05
317,315,-4008,30,-1,11,0.501,-3.082,-0.054092,-0.052053,0.000702,0.000711,1e-05,0.05
178,265,-4108,-5,-7,-48,0.539,-3.153,-0.053421,-0.053289,0.000702,0.000711,1e-05,0.05
204,182,-4123,-32,-10,10,0.519,-3.034,-0.053779,-0.05121,0.000702,0.00071,1e-05,0.05
245,254,-4080,-6,-8,7,0.453,-3.116,-0.054924,-0.052636,0.000702,0.000708,1e-05,0.05
166,196,-4126,-26,0,-19,0.48,-3.012,-0.054458,-0.050825,0.000702,0.000707,1e-05,0.05
262,237,-4110,-73,1,-38,0.345,-3.097,-0.056805,-0.052309,0.000702,0.000708,1e-05,0.05
157,256,-4127,-102,5,-6,0.106,-3.068,-0.060985,-0.051805,0.000702,0.000707,1e-05,0.05
222,315,-4094,-86,-3,0,-0.154,-3.011,-0.065528,-0.050808,0.000702,0.000706,1e-05,0.05
234,307,-4115,-76,-3,-10,-0.444,-3.083,-0.070582,-0.052057,0.000702,0.000705,1e-05,0.05
184,258,-4098,-61,-5,-12,-0.598,-3.053,-0.073268,-0.051541,0.000702,0.000705,1e-05,0.05
236,263,-4109,-72,-10,-8,-0.622,-3.023,-0.073692,-0.051009,0.000702,0.000704,1e-05,0.05
193,295,-4108,-93,5,-7,-0.771,-3.04,-0.076296,-0.051316,0.000702,0.000704,1e-05,0.05
217,342,-4102,-44,-7,-27,-0.926,-3.019,-0.078991,-0.050938,0.000702,0.000704,1e-05,0.05
234,382,-4086,-43,10,-102,-1.083,-3.074,-0.081742,-0.051913,0.000702,0.000712,1e-05,0.05
229,372,-4087,-23,2,-155,-1.222,-3.141,-0.084166,-0.053068,0.000702,0.000733,1e-05,0.05
198,347,-4115,-6,22,-190,-1.237,-3.22,-0.084414,-0.054452,0.000702,0.000768,1e-05,0.05
210,349,-4088,17,11,-170,-1.225,-3.262,-0.084212,-0.055186,0.000702,0.000789,1e-05,0.05
191,326,-4106,28,1,-108,-1.136,-3.268,-0.082659,-0.055294,0.000702,0.000795,1e-05,0.05
180,330,-4122,-35,1,-44,-1.095,-3.186,-0.081944,-0.053866,0.000702,0.000778,1e-05,0.05
199,321,-4118,-62,-4,-22,-1.2,-3.128,-0.083781,-0.052854,0.000702,0.000761,1e-05,0.05
203,334,-4082,-53,-8,-30,-1.293,-3.086,-0.085401,-0.052118,0.000702,0.000748,1e-05,0.05
212,352,-4104,-26,7,-75,-1.384,-3.118,-0.086982,-0.052679,0.000702,0.000745,1e-05,0.05
219,351,-4089,35,12,-103,-1.315,-3.132,-0.085783,-0.052919,0.000702,0.000747,1e-05,0.05
170,374,-4106,21,15,-65,-1.242,-3.125,-0.084503,-0.052804,0.000702,0.000745,1e-05,0.05
207,360,-4138,-79,10,-6,-1.341,-3.106,-0.086244,-0.052458,0.000702,0.000737,1e-05,0.05
189,383,-4086,-72,-22,103,-1.57,-3.014,-0.090228,-0.050851,0.000702,0.000737,1e-05,0.05
180,401,-4034,91,-13,106,-1.553,-2.935,-0.089946,-0.04948,0.000702,0.000747,1e-05,0.05
261,407,-4120,21,12,18,-1.479,-2.978,-0.088646,-0.050225,0.000702,0.000742,1e-05,0.05
224,486,-4088,33,11,-59,-1.663,-3.034,-0.091862,-0.0512,0.000702,0.000735,1e-05,0.05
222,399,-4094,38,16,-148,-1.687,-3.088,-0.092283,-0.052158,0.000702,0.000739,1e-05,0.05
196,346,-4079,85,-2,-97,-1.526,-3.144,-0.089466,-0.053124,0.000702,0.000756,1e-05,0.05
206,268,-4123,-17,11,-31,-1.206,-3.13,-0.083876,-0.052887,0.000702,0.000748,1e-05,0.05
186,372,-4132,-51,-8,18,-1.331,-3.094,-0.086062,-0.052247,0.000702,0.000737,1e-05,0.05
240,334,-4107,-59,9,-94,-1.435,-3.122,-0.08787,-0.052739,0.000702,0.000733,1e-05,0.05
258,390,-4127,-15,32,-237,-1.569,-3.225,-0.090223,-0.054536,0.000702,0.00076,1e-05,0.05
218,388,-4066,-84,47,-276,-1.629,-3.393,-0.091257,-0.057481,0.000702,0.000807,1e-05,0.05
190,385,-4134,-74,29,-281,-1.878,-3.486,-0.09561,-0.059097,0.000702,0.000851,1e-05,0.05
231,334,-4064,-10,49,-367,-1.86,-3.637,-0.095288,-0.061725,0.000702,0.000896,1e-05,0.05
257,316,-4034,141,5,-393,-1.456,-3.78,-0.088244,-0.064235,0.000702,0.000955,1e-05,0.05
155,311,-4155,-58,25,-408,-1.152,-3.877,-0.082936,-0.065916,0.000702,0.001002,1e-05,0.05
191,513,-4174,-109,51,-445,-1.501,-4.02,-0.089035,-0.068416,0.000702,0.001053,1e-05,0.05
218,336,-4167,-108,22,-392,-1.69,-4.205,-0.092332,-0.071643,0.000702,0.001104,1e-05,0.05
144,314,-4068,-79,27,-396,-1.705,-4.289,-0.092595,-0.073118,0.000702,0.001139,1e-05,0.05
136,335,-4039,-128,71,-368,-1.741,-4.364,-0.093227,-0.074428,0.000702,0.001165,1e-05,0.05
196,400,-4131,-146,67,-347,-1.998,-4.469,-0.097709,-0.076249,0.000702,0.001179,1e-05,0.05
183,384,-4082,-89,42,-266,-2.182,-4.484,-0.100909,-0.076508,0.000702,0.001171,1e-05,0.05
229,392,-4093,-111,58,-374,-2.236,-4.549,-0.101854,-0.07765,0.000702,0.001172,1e-05,0.05
148,430,-4088,-57,63,-310,-2.356,-4.556,-0.103957,-0.077776,0.000702,0.001176,1e-05,0.05
187,391,-4060,-79,74,-318,-2.449,-4.659,-0.105583,-0.079566,0.000702,0.001182,1e-05,0.05
227,376,-4171,-100,32,-380,-2.479,-4.756,-0.106103,-0.081268,0.000702,0.00119,1e-05,0.05
149,479,-3987,-72,52,-396,-2.666,-4.875,-0.109367,-0.083342,0.000702,0.001214,1e-05,0.05
60,402,-4121,-76,88,-351,-2.697,-4.929,-0.109904,-0.084278,0.000702,0.001225,1e-05,0.05
499,554,-4070,-132,-12,-474,-2.895,-5.001,-0.113358,-0.08553,0.000702,0.001234,1e-05,0.05
0,455,-4205,-125,127,-475,-3.112,-5.232,-0.117143,-0.089576,0.000702,0.001275,1e-05,0.05
116,506,-4098,-117,42,-545,-3.229,-5.284,-0.11918,-0.090484,0.000702,0.001313,1e-05,0.05
6,429,-3815,-117,110,-490,-3.458,-5.521,-0.123183,-0.09461,0.000702,0.001354,1e-05,0.05
141,425,-4064,-23,75,-444,-3.334,-5.718,-0.12102,-0.098054,0.000702,0.001371,1e-05,0.05
193,504,-3963,-127,142,-433,-3.408,-5.849,-0.122308,-0.100347,0.000702,0.001389,1e-05,0.05
152,599,-4464,-141,148,-403,-3.678,-6.103,-0.127025,-0.104767,0.000702,0.00139,1e-05,0.05
109,490,-3749,-126,95,-439,-3.998,-6.175,-0.132611,-0.106025,0.000702,0.001412,1e-05,0.05
25,486,-3890,-77,77,-502,-4.071,-6.328,-0.133886,-0.108704,0.000702,0.001445,1e-05,0.05
30,513,-4102,-108,137,-488,-4.08,-6.555,-0.13405,-0.11266,0.000702,0.001468,1e-05,0.05
258,522,-3926,-162,150,-542,-4.219,-6.907,-0.13646,-0.118797,0.000702,0.001489,1e-05,0.05
255,1725,-4127,476,-59,-283,-4.674,-6.884,-0.144408,-0.11841,0.000702,0.001484,1e-05,0.05
196,2310,-3267,1374,-174,935,-4.825,-5.835,-0.147039,-0.100092,0.000702,0.001352,1e-05,0.05
-272,2706,-3174,1835,-61,1932,-4.846,-4.595,-0.147417,-0.078445,0.000702,0.001434,1e-05,0.05
437,1993,-5094,986,-241,1606,-4.291,-3.108,-0.137716,-0.052495,0.000702,0.001536,1e-05,0.05
449,1571,-3610,1239,161,1289,-3.835,-2.743,-0.129767,-0.04613,0.000702,0.001614,1e-05,0.05
333,686,-4057,1146,36,827,-1.449,-2.959,-0.088123,-0.049897,0.000702,0.001693,1e-05,0.05
250,388,-4146,881,-7,329,0.577,-3.041,-0.052766,-0.051331,0.000702,0.001687,1e-05,0.05
451,304,-4122,884,1,193,2.101,-3.576,-0.026163,-0.060674,0.000702,0.001506,1e-05,0.05
96,-36,-4315,591,-23,155,4.061,-3.444,0.008052,-0.058367,0.000702,0.00133,1e-05,0.05
165,-17,-4484,9,34,158,4.783,-3.37,0.020656,-0.057078,0.000702,0.001223,1e-05,0.05
181,-267,-4342,-310,23,324,4.427,-3.356,0.014436,-0.056829,0.000702,0.001206,1e-05,0.05
189,-521,-3922,-160,0,488,4.515,-3.319,0.015972,-0.056179,0.000702,0.001237,1e-05,0.05
-165,-287,-4062,-4,123,352,4.907,-3.433,0.022819,-0.058171,0.000702,0.001278,1e-05,0.05
255,-364,-4125,-21,162,343,5.159,-3.55,0.027213,-0.060206,0.000702,0.00128,1e-05,0.05
223,-191,-4165,-127,9,405,5.151,-3.939,0.027067,-0.067009,0.000702,0.001288,1e-05,0.05
59,-305,-4063,-210,-12,533,5.124,-3.872,0.026596,-0.065833,0.000702,0.00133,1e-05,0.05
88,-271,-4618,-80,43,503,5.052,-4.038,0.025341,-0.068732,0.000702,0.001366,1e-05,0.05
-24,-255,-4007,22,111,551,5.165,-4.077,0.027311,-0.069411,0.000702,0.001409,1e-05,0.05
47,-386,-3709,-69,169,547,5.404,-4.173,0.031487,-0.071093,0.000702,0.001446,1e-05,0.05
278,-269,-4234,-127,53,692,5.331,-4.227,0.030211,-0.072035,0.000702,0.001484,1e-05,0.05
-168,-245,-4154,5,-24,533,5.347,-4.251,0.030484,-0.072451,0.000702,0.001529,1e-05,0.05
-267,-256,-3159,7,192,620,5.415,-4.215,0.031671,-0.071814,0.000702,0.001553,1e-05,0.05
69,-594,-4101,31,252,1143,6.354,-4.576,0.048071,-0.078128,0.000702,0.001616,1e-05,0.05
-853,-1346,-4105,1228,222,2869,9.317,-5.294,0.099783,-0.090647,0.000702,0.001706,1e-05,0.05
-1775,-3837,-3986,678,1245,5945,16.662,-9.41,0.227973,-0.162492,0.000702,0.0018,1e-05,0.05
473,-1595,-4586,5,2415,4880,17.36,-16.843,0.240159,-0.29222,0.000702,0.001893,1e-05,0.05
2617,-1321,-3495,-1940,203,1547,13.297,-21.723,0.169245,-0.377388,0.000702,0.001976,1e-05,0.05
-717,-1674,-6070,-3991,117,1644,5.219,-21.06,0.028251,-0.365815,0.000702,0.002053,1e-05,0.05
90,-516,-191,-3185,-26,-559,-0.857,-15.469,-0.077791,-0.268246,0.000702,0.001897,1e-05,0.05
-1093,-698,-4941,-1431,736,-1795,0.292,-16.084,-0.057729,-0.278973,0.000702,0.001954,1e-05,0.05
-635,-1169,-3245,313,978,-1402,3.021,-17.692,-0.010106,-0.307031,0.000702,0.002034,1e-05,0.05
-611,984,-4665,-384,258,-1065,4.682,-17.483,0.018887,-0.303392,0.000702,0.002096,1e-05,0.05
420,538,-4116,-664,136,-630,2.335,-17.151,-0.022083,-0.297599,0.000702,0.00212,1e-05,0.05
-22,1351,-3759,-764,34,58,-0.952,-14.176,-0.079446,-0.245668,0.000702,0.001751,1e-05,0.05
332,580,-4032,-475,-86,286,-3.836,-12.055,-0.129776,-0.20865,0.000702,0.001588,1e-05,0.05
170,1228,-3859,151,-97,184,-4.917,-10.614,-0.148652,-0.183506,0.000702,0.00144,1e-05,0.05
115,1140,-3869,934,64,-25,-4.36,-8.699,-0.138934,-0.150074,0.000702,0.001236,1e-05,0.05
330,1197,-3855,1131,115,-397,-3.182,-8.369,-0.118374,-0.14432,0.000702,0.001191,1e-05,0.05
330,637,-4126,875,105,-554,-1.586,-8.573,-0.090508,-0.147876,0.000702,0.001239,1e-05,0.05
131,707,-4143,480,123,-389,-0.491,-8.664,-0.071403,-0.149468,0.000702,0.001281,1e-05,0.05
157,18,-4294,237,68,-330,0.327,-8.39,-0.057126,-0.144689,0.000702,0.00127,1e-05,0.05
145,676,-3981,173,49,-413,0.469,-8.031,-0.054653,-0.138428,0.000702,0.001277,1e-05,0.05
337,291,-4108,327,69,-635,0.799,-7.972,-0.04889,-0.137387,0.000702,0.00132,1e-05,0.05
268,271,-4195,205,98,-738,1.376,-8.149,-0.038818,-0.140482,0.000702,0.001379,1e-05,0.05
130,437,-4116,198,70,-724,1.622,-8.209,-0.034514,-0.141533,0.000702,0.001448,1e-05,0.05
243,341,-4120,11,66,-689,1.707,-8.299,-0.033043,-0.143099,0.000702,0.001507,1e-05,0.05
82,446,-4095,26,-6,-432,1.497,-8.109,-0.036701,-0.13978,0.000702,0.001529,1e-05,0.05
132,154,-4171,-39,7,-171,1.456,-7.532,-0.037418,-0.129717,0.000702,0.001455,1e-05,0.05
145,243,-4058,98,-7,32,1.42,-6.294,-0.038046,-0.108101,0.000702,0.001222,1e-05,0.05
240,269,-4158,-17,-4,33,1.321,-5.563,-0.039779,-0.095352,0.000702,0.001057,1e-05,0.05
184,504,-4086,29,5,-29,0.79,-5.065,-0.049042,-0.08666,0.000702,0.000955,1e-05,0.05
179,388,-4113,-25,-11,6,0.349,-4.643,-0.056746,-0.079284,0.000702,0.000887,1e-05,0.05
171,358,-4091,55,-14,74,0.176,-4.325,-0.059756,-0.073743,0.000702,0.000846,1e-05,0.05
189,248,-4114,87,-17,162,0.291,-4.057,-0.057747,-0.069064,0.000702,0.000834,1e-05,0.05
180,255,-4111,60,-12,197,0.418,-3.86,-0.055529,-0.065627,0.000702,0.000848,1e-05,0.05
180,268,-4121,24,-16,169,0.407,-3.672,-0.055732,-0.062347,0.000702,0.000854,1e-05,0.05
214,256,-4121,1,-10,118,0.347,-3.524,-0.05678,-0.059757,0.000702,0.000852,1e-05,0.05
205,207,-4103,26,-1,19,0.381,-3.45,-0.056188,-0.058473,0.000702,0.000819,1e-05,0.05
227,207,-4123,19,2,-72,0.485,-3.397,-0.054369,-0.057537,0.000702,0.000791,1e-05,0.05
165,188,-4135,-46,3,-79,0.455,-3.34,-0.054885,-0.056542,0.000702,0.00078,1e-05,0.05
186,136,-4114,-69,4,-4,0.453,-3.222,-0.054926,-0.054485,0.000702,0.000764,1e-05,0.05
208,207,-4135,-91,-4,18,0.357,-3.206,-0.056604,-0.054211,0.000702,0.00075,1e-05,0.05
168,266,-4143,-167,1,-35,-0.004,-3.099,-0.062905,-0.052348,0.000702,0.000737,1e-05,0.05
221,264,-4135,-230,2,-47,-0.478,-3.07,-0.071175,-0.051834,0.000702,0.000732,1e-05,0.05
178,263,-4112,-211,-2,-29,-0.858,-3.053,-0.07781,-0.051536,0.000702,0.000728,1e-05,0.05
197,285,-4095,-169,2,-50,-1.221,-2.985,-0.084143,-0.050351,0.000702,0.000723,1e-05,0.05
203,289,-4115,-113,0,-62,-1.418,-3.017,-0.087578,-0.050905,0.000702,0.000725,1e-05,0.05
189,298,-4127,-100,-7,-45,-1.427,-2.965,-0.087741,-0.050008,0.000702,0.000722,1e-05,0.05
219,386,-4092,-105,19,-152,-1.636,-2.993,-0.091384,-0.050487,0.000702,0.000729,1e-05,0.05
158,512,-4004,-19,24,-209,-1.843,-3.077,-0.095003,-0.051966,0.000702,0.000757,1e-05,0.05
201,422,-4112,96,9,-172,-1.85,-3.14,-0.095118,-0.053057,0.000702,0.000783,1e-05,0.05
150,390,-4077,31,33,-58,-1.607,-3.134,-0.090872,-0.052946,0.000702,0.000779,1e-05,0.05
222,474,-4092,89,6,13,-1.597,-3.042,-0.090709,-0.051352,0.000702,0.00076,1e-05,0.05
205,502,-4144,102,20,-75,-1.622,-3.104,-0.091133,-0.052438,0.000702,0.00075,1e-05,0.05
157,445,-4122,0,24,-125,-1.663,-3.107,-0.091855,-0.052478,0.000702,0.000759,1e-05,0.05
270,472,-3949,36,10,-124,-1.813,-3.171,-0.094479,-0.053598,0.000702,0.000767,1e-05,0.05
128,374,-4126,208,18,-121,-1.515,-3.31,-0.089266,-0.056025,0.000702,0.000779,1e-05,0.05
158,362,-4120,150,4,-68,-1.078,-3.119,-0.081647,-0.052699,0.000702,0.000769,1e-05,0.05
268,310,-4233,-73,6,-80,-0.99,-3.127,-0.080113,-0.052827,0.000702,0.000761,1e-05,0.05
187,439,-4119,-26,-12,-30,-1.22,-3.151,-0.08412,-0.053245,0.000702,0.000751,1e-05,0.05
146,230,-4214,-158,-16,0,-1.413,-3.03,-0.087493,-0.051131,0.000702,0.000741,1e-05,0.05
229,311,-4074,-97,2,-44,-1.58,-3.028,-0.090411,-0.051102,0.000702,0.000733,1e-05,0.05
183,225,-4138,8,20,-76,-1.357,-3.088,-0.086513,-0.052147,0.000702,0.000732,1e-05,0.05
157,240,-4127,-129,-13,-21,-1.373,-3.051,-0.086792,-0.051504,0.000702,0.000732,1e-05,0.05
188,374,-3984,-92,6,-30,-1.64,-3.061,-0.091454,-0.051676,0.000702,0.000724,1e-05,0.05
215,288,-4056,-61,-19,-74,-1.736,-3.116,-0.093136,-0.052643,0.000702,0.000724,1e-05,0.05
244,322,-4156,-83,1,-171,-1.688,-3.194,-0.092293,-0.053993,0.000702,0.00074,1e-05,0.05
165,386,-4161,-96,12,-192,-1.9,-3.254,-0.095998,-0.05504,0.000702,0.000775,1e-05,0.05
209,336,-4103,-99,32,-257,-1.974,-3.347,-0.097276,-0.056666,0.000702,0.000814,1e-05,0.05
174,360,-4083,-114,44,-276,-2.025,-3.43,-0.09818,-0.058113,0.000702,0.00085,1e-05,0.05
173,325,-4065,-67,13,-224,-2.087,-3.523,-0.09925,-0.059737,0.000702,0.000889,1e-05,0.05
257,414,-4134,-87,29,-352,-2.148,-3.631,-0.10033,-0.061632,0.000702,0.000926,1e-05,0.05
94,335,-4036,-91,24,-318,-2.211,-3.667,-0.101426,-0.062252,0.000702,0.000964,1e-05,0.05
237,549,-4188,-186,65,-496,-2.529,-3.805,-0.106968,-0.064659,0.000702,0.001016,1e-05,0.05
19,288,-4462,-91,90,-378,-2.628,-4.0,-0.108701,-0.068077,0.000702,0.001072,1e-05,0.05
211,762,-3885,24,82,-383,-2.858,-4.086,-0.112719,-0.069568,0.000702,0.00111,1e-05,0.05
29,744,-3952,69,91,-237,-3.143,-4.11,-0.117679,-0.069994,0.000702,0.001114,1e-05,0.05
224,794,-4128,156,-8,-202,-3.26,-3.835,-0.119735,-0.065192,0.000702,0.001055,1e-05,0.05
259,921,-3946,252,-4,-255,-3.605,-3.965,-0.125753,-0.067465,0.000702,0.00104,1e-05,0.05
66,854,-4066,358,35,-270,-3.573,-3.949,-0.125201,-0.067175,0.000702,0.001046,1e-05,0.05
165,804,-4036,440,76,-214,-3.174,-3.886,-0.118225,-0.066071,0.000702,0.001038,1e-05,0.05
183,742,-4084,485,20,-156,-2.681,-3.88,-0.109624,-0.065966,0.000702,0.001003,1e-05,0.05
176,729,-4131,374,6,-13,-2.227,-3.638,-0.101696,-0.061744,0.000702,0.00093,1e-05,0.05
174,763,-4009,299,16,-68,-2.145,-3.551,-0.100272,-0.060232,0.000702,0.000868,1e-05,0.05
190,594,-4090,276,2,-90,-1.888,-3.399,-0.095787,-0.057584,0.000702,0.000834,1e-05,0.05
220,396,-4166,141,7,-113,-1.59,-3.403,-0.090589,-0.057642,0.000702,0.000821,1e-05,0.05
153,388,-4036,306,8,-71,-1.059,-3.316,-0.081314,-0.056128,0.000702,0.000805,1e-05,0.05
189,201,-4123,307,-6,-46,-0.17,-3.194,-0.06579,-0.054002,0.000702,0.000782,1e-05,0.05
212,142,-4132,315,6,-53,0.723,-3.212,-0.050216,-0.054311,0.000702,0.000768,1e-05,0.05
146,71,-4094,223,-2,58,1.428,-3.13,-0.037905,-0.052883,0.000702,0.000754,1e-05,0.05
153,-17,-4212,68,-26,186,1.995,-2.976,-0.028016,-0.050199,0.000702,0.000761,1e-05,0.05
171,30,-4189,-83,-3,260,2.082,-2.886,-0.026501,-0.04862,0.000702,0.000796,1e-05,0.05
181,-8,-4097,-134,-22,244,2.019,-2.828,-0.027593,-0.047613,0.000702,0.000836,1e-05,0.05
162,67,-4088,-159,0,178,1.783,-2.775,-0.031713,-0.046684,0.000702,0.000854,1e-05,0.05
166,-45,-4071,-76,-2,191,1.728,-2.691,-0.032676,-0.045221,0.000702,0.000864,1e-05,0.05
205,50,-4170,-38,11,148,1.873,-2.73,-0.030133,-0.045894,0.000702,0.000862,1e-05,0.05
180,82,-4172,-56,-1,52,1.859,-2.741,-0.030393,-0.046087,0.000702,0.000841,1e-05,0.05
248,27,-4090,-99,21,18,1.789,-2.712,-0.031601,-0.045585,0.000702,0.000807,1e-05,0.05
229,-30,-4265,-59,-6,-14,1.821,-2.921,-0.031043,-0.049237,0.000702,0.000778,1e-05,0.05
144,-1,-4193,-29,-20,25,2.014,-2.83,-0.027677,-0.047645,0.000702,0.00076,1e-05,0.05
159,56,-4071,-136,-21,168,2.005,-2.666,-0.027846,-0.044793,0.000702,0.000765,1e-05,0.05
210,172,-4246,-223,-30,172,1.536,-2.6,-0.03602,-0.043635,0.000702,0.000785,1e-05,0.05
143,126,-4047,-205,20,99,1.08,-2.594,-0.043982,-0.043533,0.000702,0.000786,1e-05,0.05
230,62,-4192,-146,-27,103,0.737,-2.546,-0.049971,-0.042692,0.000702,0.000779,1e-05,0.05
240,-18,-3975,-32,-17,186,0.932,-2.54,-0.046559,-0.042587,0.000702,0.000791,1e-05,0.05
109,57,-4086,-53,17,197,1.149,-2.475,-0.042771,-0.041445,0.000702,0.000828,1e-05,0.05
178,242,-4275,-48,1,79,0.963,-2.425,-0.046029,-0.040584,0.000702,0.000827,1e-05,0.05
291,296,-4011,-125,25,-159,0.6,-2.664,-0.052358,-0.044748,0.000702,0.000806,1e-05,0.05
141,129,-4064,-150,1,-161,0.263,-2.736,-0.058242,-0.046008,0.000702,0.000819,1e-05,0.05
235,55,-4068,-63,-17,0,0.332,-2.83,-0.057041,-0.047648,0.000702,0.000804,1e-05,0.05
109,76,-4160,6,-11,137,0.626,-2.714,-0.051904,-0.045618,0.000702,0.000791,1e-05,0.05
171,165,-4123,58,0,56,0.865,-2.624,-0.047734,-0.044046,0.000702,0.000792,1e-05,0.05
264,223,-4144,-47,2,-6,0.852,-2.763,-0.04797,-0.046471,0.000702,0.00077,1e-05,0.05
212,169,-4143,-131,1,-78,0.593,-2.848,-0.052487,-0.047968,0.000702,0.000756,1e-05,0.05
189,177,-4125,-166,24,-168,0.292,-2.86,-0.057738,-0.048175,0.000702,0.000764,1e-05,0.05
211,177,-4143,-222,11,-149,-0.067,-2.945,-0.063999,-0.049661,0.000702,0.000784,1e-05,0.05
187,199,-4121,-213,9,-125,-0.487,-2.97,-0.071337,-0.050086,0.000702,0.000787,1e-05,0.05
158,138,-4092,-96,-3,-4,-0.499,-2.877,-0.071547,-0.048471,0.000702,0.00077,1e-05,0.05
218,243,-4146,-198,-1,-18,-0.635,-2.861,-0.073908,-0.048187,0.000702,0.000753,1e-05,0.05
212,387,-4091,-179,10,-119,-1.111,-2.909,-0.082227,-0.049032,0.000702,0.000748,1e-05,0.05
213,322,-4104,-193,15,-182,-1.565,-2.999,-0.090145,-0.050603,0.000702,0.000771,1e-05,0.05
212,342,-4130,-142,37,-285,-1.881,-3.125,-0.095664,-0.052799,0.000702,0.000811,1e-05,0.05
159,323,-4105,-56,43,-274,-1.946,-3.195,-0.096799,-0.054011,0.000702,0.000847,1e-05,0.05
189,280,-4004,-18,43,-168,-1.833,-3.298,-0.094832,-0.05582,0.000702,0.000867,1e-05,0.05
168,368,-4164,-18,30,-189,-1.73,-3.355,-0.093032,-0.056814,0.000702,0.000871,1e-05,0.05
247,606,-4127,-223,18,-370,-2.223,-3.391,-0.101635,-0.057439,0.000702,0.000904,1e-05,0.05
124,429,-4117,-83,98,-468,-2.877,-3.707,-0.113044,-0.062961,0.000702,0.000974,1e-05,0.05
122,163,-4081,7,62,-272,-2.409,-3.767,-0.104877,-0.064,0.000702,0.001006,1e-05,0.05
282,482,-4268,-209,74,-400,-2.584,-4.067,-0.107933,-0.069241,0.000702,0.001045,1e-05,0.05
116,496,-4183,77,20,-410,-2.701,-4.15,-0.109979,-0.070679,0.000702,0.001083,1e-05,0.05
69,249,-4057,-1,93,-334,-2.325,-4.255,-0.103409,-0.072515,0.000702,0.001123,1e-05,0.05
171,490,-4090,-156,79,-324,-2.363,-4.298,-0.104078,-0.073264,0.000702,0.001144,1e-05,0.05
95,407,-4098,-157,56,-284,-2.811,-4.423,-0.111888,-0.075443,0.000702,0.00115,1e-05,0.05
95,442,-4244,-173,48,-243,-3.076,-4.307,-0.116523,-0.073431,0.000702,0.001126,1e-05,0.05
326,489,-4282,-136,41,-283,-3.265,-4.368,-0.11981,-0.074491,0.000702,0.001115,1e-05,0.05
9,419,-3814,-68,61,-339,-3.445,-4.558,-0.12295,-0.077804,0.000702,0.001136,1e-05,0.05
126,476,-4085,-34,81,-352,-3.428,-4.52,-0.122656,-0.077152,0.000702,0.001157,1e-05,0.05
287,535,-4385,-128,110,-390,-3.495,-4.761,-0.123827,-0.081353,0.000702,0.001176,1e-05,0.05
-72,494,-4402,-167,118,-387,-3.592,-4.901,-0.125531,-0.083794,0.000702,0.001206,1e-05,0.05
-101,714,-3457,-61,194,-430,-3.909,-4.888,-0.131063,-0.08357,0.000702,0.001231,1e-05,0.05
429,853,-4128,91,106,-614,-4.161,-5.216,-0.13546,-0.08929,0.000702,0.001269,1e-05,0.05
-154,1046,-4508,140,120,-487,-4.335,-5.544,-0.138487,-0.095011,0.000702,0.001319,1e-05,0.05
-46,1000,-3307,425,-20,-7,-4.653,-5.149,-0.144042,-0.088113,0.000702,0.001262,1e-05,0.05
-21,1413,-4359,647,-88,480,-4.526,-4.168,-0.141826,-0.070996,0.000702,0.001234,1e-05,0.05
411,1392,-3871,837,72,398,-4.406,-3.92,-0.139728,-0.066673,0.000702,0.00127,1e-05,0.05
497,1408,-3850,898,24,125,-3.989,-4.084,-0.132448,-0.069542,0.000702,0.001244,1e-05,0.05
57,1129,-3864,948,27,39,-3.204,-4.119,-0.118755,-0.070149,0.000702,0.001084,1e-05,0.05
74,1054,-4073,1063,10,218,-2.14,-3.604,-0.10019,-0.06116,0.000702,0.001034,1e-05,0.05
170,958,-4085,798,21,198,-0.967,-3.407,-0.079715,-0.057722,0.000702,0.001023,1e-05,0.05
217,515,-4248,504,-10,213,-0.317,-3.353,-0.068369,-0.05678,0.000702,0.001013,1e-05,0.05
257,580,-3955,703,6,76,0.892,-3.392,-0.047267,-0.05745,0.000702,0.000964,1e-05,0.05
276,-1,-4359,374,-3,14,2.233,-3.469,-0.023855,-0.058796,0.000702,0.000895,1e-05,0.05
134,-112,-4279,152,-9,45,2.878,-3.303,-0.012606,-0.05591,0.000702,0.000844,1e-05,0.05
124,-242,-4174,34,17,149,3.406,-3.105,-0.003379,-0.052453,0.000702,0.000833,1e-05,0.05
199,-165,-4091,-72,70,129,3.735,-3.207,0.00235,-0.054233,0.000702,0.000824,1e-05,0.05
182,-226,-4227,-203,-18,165,3.731,-3.163,0.002291,-0.053466,0.000702,0.00082,1e-05,0.05
184,-223,-4158,-226,15,181,3.594,-3.096,-0.000105,-0.052299,0.000702,0.00084,1e-05,0.05
182,-203,-4015,-237,5,105,3.435,-3.14,-0.002878,-0.053061,0.000702,0.000835,1e-05,0.05
206,-256,-4242,-155,-104,140,3.408,-3.042,-0.003352,-0.051343,0.000702,0.00082,1e-05,0.05
176,-269,-3924,-130,-26,275,3.799,-2.862,0.003477,-0.048209,0.000702,0.000858,1e-05,0.05
-15,37,-4230,-91,162,79,3.583,-2.707,-0.000295,-0.045507,0.000702,0.000878,1e-05,0.05
293,-202,-4078,-186,12,117,3.475,-2.922,-0.002183,-0.049252,0.000702,0.000843,1e-05,0.05
288,-11,-4235,-186,-67,267,3.181,-3.005,-0.007309,-0.050705,0.000702,0.000857,1e-05,0.05
191,-91,-4197,-93,-10,364,3.122,-2.901,-0.008338,-0.048895,0.000702,0.000899,1e-05,0.05
-79,-122,-4026,-24,13,304,3.305,-2.703,-0.005153,-0.045423,0.000702,0.000945,1e-05,0.05
121,-75,-4044,-74,44,259,3.337,-2.724,-0.004594,-0.045802,0.000702,0.000964,1e-05,0.05
281,-32,-4204,-89,32,352,3.238,-2.854,-0.006325,-0.048068,0.000702,0.000994,1e-05,0.05
22,-87,-4259,-94,-14,337,3.158,-2.702,-0.007718,-0.045406,0.000702,0.001038,1e-05,0.05
186,-122,-4029,-125,-62,408,3.145,-2.552,-0.007936,-0.04279,0.000702,0.001075,1e-05,0.05
185,-51,-4089,-93,6,359,2.959,-2.606,-0.011191,-0.043734,0.000702,0.001104,1e-05,0.05
94,-36,-4332,-26,-46,369,2.96,-2.5,-0.01117,-0.041897,0.000702,0.001137,1e-05,0.05
81,-48,-3970,24,100,312,3.078,-2.375,-0.009103,-0.039714,0.000702,0.001156,1e-05,0.05
166,-102,-3531,6,77,-45,3.636,-2.739,0.00063,-0.046055,0.000702,0.001035,1e-05,0.05
327,289,-6184,-48,-114,129,3.372,-2.636,-0.00398,-0.044268,0.000702,0.00099,1e-05,0.05
-402,-1170,-3019,-123,153,1031,3.841,-2.545,0.004213,-0.042674,0.000702,0.001051,1e-05,0.05
-199,-1065,-3334,-161,95,1386,5.067,-2.254,0.025597,-0.037595,0.000702,0.00114,1e-05,0.05
373,-454,-4495,-623,232,1018,5.831,-2.826,0.038946,-0.04757,0.000702,0.001231,1e-05,0.05
281,-264,-4243,-1126,-122,473,3.987,-2.908,0.006752,-0.049015,0.000702,0.001297,1e-05,0.05
259,-116,-3973,-1144,-112,14,1.448,-2.619,-0.037563,-0.043972,0.000702,0.001183,1e-05,0.05
243,-116,-3988,-613,-40,-171,-0.032,-2.763,-0.063392,-0.046475,0.000702,0.001082,1e-05,0.05
113,-154,-4054,-381,81,-285,-0.224,-2.858,-0.066738,-0.048129,0.000702,0.001071,1e-05,0.05
212,483,-4120,-71,129,-341,-0.374,-3.115,-0.069352,-0.05262,0.000702,0.001094,1e-05,0.05
205,397,-4208,-107,95,-270,-0.765,-3.465,-0.076181,-0.05873,0.000702,0.00111,1e-05,0.05
189,514,-4033,-128,24,-105,-1.303,-3.53,-0.085582,-0.059859,0.000702,0.001062,1e-05,0.05
186,559,-4057,2,-3,-56,-1.741,-3.414,-0.093211,-0.05784,0.000702,0.000968,1e-05,0.05
190,508,-4078,26,5,-16,-1.987,-3.319,-0.09751,-0.056175,0.000702,0.000901,1e-05,0.05
191,574,-4063,50,2,41,-2.153,-3.272,-0.100414,-0.055355,0.000702,0.000848,1e-05,0.05
181,510,-4091,62,-10,70,-2.218,-3.156,-0.101552,-0.05333,0.000702,0.000822,1e-05,0.05
220,642,-4004,224,15,-24,-2.207,-3.13,-0.101347,-0.05288,0.000702,0.000795,1e-05,0.05
213,602,-4088,255,17,-87,-2.128,-3.184,-0.099964,-0.053822,0.000702,0.000782,1e-05,0.05
231,601,-4067,265,33,-131,-1.888,-3.225,-0.095784,-0.054535,0.000702,0.000781,1e-05,0.05
210,546,-4060,245,26,-84,-1.635,-3.337,-0.091369,-0.05649,0.000702,0.000778,1e-05,0.05
156,510,-4109,234,-11,-43,-1.35,-3.178,-0.086392,-0.053722,0.000702,0.000762,1e-05,0.05
265,493,-4155,89,12,-129,-1.253,-3.264,-0.084696,-0.05522,0.000702,0.00076,1e-05,0.05
183,517,-4048,69,17,-212,-1.41,-3.31,-0.087439,-0.056024,0.000702,0.000789,1e-05,0.05
259,469,-4063,107,32,-241,-1.42,-3.438,-0.087609,-0.058265,0.000702,0.00082,1e-05,0.05
185,329,-4159,-16,12,-251,-1.251,-3.533,-0.084665,-0.059912,0.000702,0.000855,1e-05,0.05
164,460,-4111,6,20,-238,-1.361,-3.517,-0.086593,-0.059642,0.000702,0.000879,1e-05,0.05
189,602,-4056,123,78,-352,-1.478,-3.645,-0.088634,-0.061871,0.000702,0.000916,1e-05,0.05
247,701,-4224,229,32,-416,-1.646,-3.744,-0.091552,-0.063595,0.000702,0.000977,1e-05,0.05
317,156,-4185,-19,47,-157,-1.13,-3.948,-0.082558,-0.067154,0.000702,0.000989,1e-05,0.05
70,475,-4002,194,25,-109,-0.948,-3.755,-0.079371,-0.063789,0.000702,0.000933,1e-05,0.05
259,414,-4148,53,22,-298,-0.889,-3.678,-0.07835,-0.062449,0.000702,0.000934,1e-05,0.05
141,314,-4137,-86,55,-261,-1.029,-3.8,-0.080793,-0.064571,0.000702,0.000963,1e-05,0.05
252,260,-4141,-112,20,-258,-1.059,-3.811,-0.081307,-0.064762,0.000702,0.000978,1e-05,0.05
265,407,-4020,-38,51,-334,-1.158,-4.05,-0.083039,-0.068948,0.000702,0.001002,1e-05,0.05
171,365,-4097,39,26,-262,-1.193,-4.146,-0.08366,-0.07062,0.000702,0.00103,1e-05,0.05
202,425,-4092,86,-3,-132,-1.081,-4.016,-0.081691,-0.068348,0.000702,0.001003,1e-05,0.05
195,384,-4099,90,22,-91,-0.975,-3.928,-0.079857,-0.066813,0.000702,0.000938,1e-05,0.05
215,420,-4109,90,1,-7,-0.966,-3.79,-0.079687,-0.064395,0.000702,0.000878,1e-05,0.05
208,411,-4093,86,8,25,-0.897,-3.702,-0.078492,-0.062875,0.000702,0.000837,1e-05,0.05
303,262,-4131,66,-7,-17,-0.734,-3.659,-0.075637,-0.062122,0.000702,0.000799,1e-05,0.05
261,184,-4134,-63,-1,1,-0.541,-3.731,-0.07228,-0.063381,0.000702,0.000774,1e-05,0.05
152,366,-4153,-119,-35,-22,-0.704,-3.59,-0.075127,-0.060915,0.000702,0.000756,1e-05,0.05
290,169,-4076,-183,-50,-22,-0.93,-3.468,-0.079058,-0.058776,0.000702,0.000745,1e-05,0.05
168,320,-4069,-107,-10,-52,-1.055,-3.474,-0.081244,-0.058883,0.000702,0.000734,1e-05,0.05
238,314,-4138,-93,-38,-120,-1.287,-3.344,-0.085295,-0.056621,0.000702,0.000742,1e-05,0.05
203,373,-4079,-72,-8,-134,-1.449,-3.345,-0.08812,-0.056629,0.000702,0.000762,1e-05,0.05
142,472,-4067,37,-7,-171,-1.554,-3.276,-0.089953,-0.05543,0.000702,0.000776,1e-05,0.05
183,502,-4038,102,35,-152,-1.577,-3.255,-0.090357,-0.055068,0.000702,0.000796,1e-05,0.05
195,403,-4143,50,-9,-33,-1.544,-3.259,-0.089786,-0.055126,0.000702,0.000788,1e-05,0.05
148,444,-4082,-18,-6,15,-1.62,-3.146,-0.091098,-0.053159,0.000702,0.000766,1e-05,0.05
194,411,-4115,1,-13,-7,-1.753,-3.003,-0.093434,-0.050672,0.000702,0.00075,1e-05,0.05
247,318,-4146,-19,-73,1,-1.738,-2.931,-0.093166,-0.049411,0.000702,0.000737,1e-05,0.05
96,419,-4033,25,-49,-36,-1.695,-2.711,-0.092424,-0.045563,0.000702,0.000729,1e-05,0.05
147,418,-4058,33,10,-78,-1.682,-2.609,-0.092186,-0.043798,0.000702,0.000729,1e-05,0.05
206,408,-4098,25,16,-69,-1.652,-2.741,-0.09166,-0.046092,0.000702,0.000731,1e-05,0.05
153,423,-4081,55,-4,-84,-1.607,-2.705,-0.090887,-0.045474,0.000702,0.000733,1e-05,0.05
197,371,-4131,30,10,-68,-1.521,-2.726,-0.089372,-0.045841,0.000702,0.000736,1e-05,0.05
147,400,-4123,17,-4,-23,-1.517,-2.704,-0.08931,-0.04545,0.000702,0.00073,1e-05,0.05
164,377,-4126,17,-14,-12,-1.555,-2.606,-0.089979,-0.04374,0.000702,0.000724,1e-05,0.05
127,362,-4057,84,40,-2,-1.427,-2.576,-0.087745,-0.043212,0.000702,0.000718,1e-05,0.05
161,387,-4050,78,62,20,-1.267,-2.701,-0.084946,-0.045392,0.000702,0.000714,1e-05,0.05
248,187,-4162,-15,8,65,-1.058,-2.816,-0.081303,-0.047406,0.000702,0.000716,1e-05,0.05
148,332,-4099,35,-30,27,-0.908,-2.741,-0.078676,-0.046086,0.000702,0.000716,1e-05,0.05
180,337,-4084,-4,3,24,-0.842,-2.654,-0.077523,-0.044572,0.000702,0.000713,1e-05,0.05
232,346,-4113,-37,31,13,-0.951,-2.816,-0.079426,-0.047403,0.000702,0.000711,1e-05,0.05
198,334,-4135,-27,-31,-1,-1.056,-2.804,-0.081257,-0.047196,0.000702,0.000709,1e-05,0.05
178,382,-4045,57,-3,5,-1.075,-2.763,-0.081595,-0.046484,0.000702,0.000707,1e-05,0.05
176,329,-4120,33,-10,43,-0.979,-2.742,-0.079915,-0.046105,0.000702,0.000707,1e-05,0.05
166,438,-4076,98,-2,25,-0.953,-2.675,-0.079466,-0.044946,0.000702,0.000708,1e-05,0.05
226,381,-4093,94,14,-22,-0.9,-2.74,-0.078548,-0.046084,0.000702,0.000707,1e-05,0.05
178,350,-4104,118,-7,-29,-0.694,-2.785,-0.074951,-0.04687,0.000702,0.000707,1e-05,0.05
193,316,-4076,168,4,-11,-0.398,-2.751,-0.069782,-0.046265,0.000702,0.000707,1e-05,0.05
195,223,-4087,208,8,10,0.066,-2.805,-0.061674,-0.047213,0.000702,0.000706,1e-05,0.05
164,152,-4144,167,-8,4,0.678,-2.757,-0.050997,-0.046376,0.000702,0.000705,1e-05,0.05
220,172,-4123,72,7,3,1.016,-2.753,-0.045103,-0.046305,0.000702,0.000704,1e-05,0.05
204,159,-4167,-37,-6,-44,0.997,-2.843,-0.045428,-0.04787,0.000702,0.000706,1e-05,0.05
162,127,-4146,-129,2,-7,0.876,-2.801,-0.047542,-0.047147,0.000702,0.000707,1e-05,0.05
220,120,-4111,-115,0,3,0.676,-2.816,-0.051031,-0.047405,0.000702,0.000706,1e-05,0.05
180,98,-4113,-69,-3,4,0.688,-2.794,-0.050816,-0.047027,0.000702,0.000705,1e-05,0.05
195,116,-4120,-58,-3,21,0.731,-2.775,-0.05008,-0.046689,0.000702,0.000704,1e-05,0.05
195,166,-4133,-93,-7,23,0.669,-2.768,-0.051164,-0.046564,0.000702,0.000705,1e-05,0.05
206,232,-4122,-160,0,-11,0.394,-2.756,-0.055947,-0.046348,0.000702,0.000704,1e-05,0.05
209,294,-4119,-214,6,-25,-0.094,-2.812,-0.064476,-0.047327,0.000702,0.000705,1e-05,0.05
178,366,-4071,-148,-8,-17,-0.656,-2.79,-0.07429,-0.046951,0.000702,0.000705,1e-05,0.05
205,349,-4084,-47,-1,-6,-0.944,-2.793,-0.079306,-0.047002,0.000702,0.000704,1e-05,0.05
172,366,-4081,-71,-3,8,-1.098,-2.781,-0.081994,-0.046789,0.000702,0.000704,1e-05,0.05
196,394,-4074,46,3,-11,-1.21,-2.757,-0.083942,-0.046368,0.000702,0.000703,1e-05,0.05
204,427,-4091,95,-2,-19,-1.156,-2.785,-0.083008,-0.046862,0.000702,0.000704,1e-05,0.05
184,424,-4088,117,-2,-14,-1.05,-2.781,-0.081157,-0.0468,0.000702,0.000704,1e-05,0.05
207,409,-4088,149,-1,-26,-0.899,-2.79,-0.078527,-0.046954,0.000702,0.000704,1e-05,0.05
171,360,-4116,143,2,0,-0.716,-2.799,-0.075327,-0.047109,0.000702,0.000704,1e-05,0.05
182,332,-4092,197,-8,45,-0.391,-2.742,-0.069659,-0.046106,0.000702,0.000705,1e-05,0.05
190,300,-4088,263,-11,84,0.077,-2.705,-0.061479,-0.045459,0.000702,0.000712,1e-05,0.05
196,247,-4177,175,1,76,0.564,-2.702,-0.052996,-0.045409,0.000702,0.000719,1e-05,0.05
188,267,-4138,176,2,72,0.777,-2.693,-0.049274,-0.045252,0.000702,0.000724,1e-05,0.05
210,131,-4135,174,0,40,1.17,-2.725,-0.04242,-0.045812,0.000702,0.000723,1e-05,0.05
251,57,-4161,7,3,-50,1.585,-2.74,-0.035176,-0.04607,0.000702,0.000719,1e-05,0.05
234,54,-4126,-81,-7,-61,1.68,-2.83,-0.033502,-0.047641,0.000702,0.000722,1e-05,0.05
217,43,-4135,-178,8,-71,1.628,-2.84,-0.034415,-0.047815,0.000702,0.000721,1e-05,0.05
182,190,-4071,-86,-1,12,1.256,-2.842,-0.040912,-0.047852,0.000702,0.000718,1e-05,0.05
129,34,-4108,-92,-3,128,1.278,-2.745,-0.040531,-0.046167,0.000702,0.000725,1e-05,0.05
181,96,-4045,-18,-14,195,1.37,-2.681,-0.038917,-0.045055,0.000702,0.000754,1e-05,0.05
183,50,-4097,-83,-22,325,1.49,-2.612,-0.036834,-0.043839,0.000702,0.000801,1e-05,0.05
167,144,-4100,-86,-21,383,1.352,-2.522,-0.039232,-0.042273,0.000702,0.000859,1e-05,0.05
206,150,-4121,-47,-23,362,1.202,-2.439,-0.041849,-0.040816,0.000702,0.000916,1e-05,0.05
227,175,-4093,4,-14,265,1.116,-2.427,-0.043346,-0.040619,0.000702,0.000952,1e-05,0.05
190,183,-4130,-4,1,202,1.075,-2.451,-0.044074,-0.041038,0.000702,0.000953,1e-05,0.05
208,155,-4116,-46,9,141,1.005,-2.508,-0.045283,-0.042026,0.000702,0.00094,1e-05,0.05
245,139,-4103,-21,-18,91,1.01,-2.595,-0.04521,-0.04355,0.000702,0.000901,1e-05,0.05
254,189,-4093,46,3,15,1.071,-2.756,-0.044133,-0.046363,0.000702,0.000853,1e-05,0.05
173,207,-4104,67,25,-30,1.195,-2.787,-0.041983,-0.046891,0.000702,0.000814,1e-05,0.05
244,243,-4155,14,70,-63,1.153,-2.962,-0.042712,-0.04995,0.000702,0.000791,1e-05,0.05
256,298,-4178,1,-11,-179,1.002,-3.099,-0.045336,-0.052342,0.000702,0.000797,1e-05,0.05
203,137,-4052,66,0,-129,1.055,-3.119,-0.044423,-0.052687,0.000702,0.000813,1e-05,0.05
230,128,-4082,103,22,-57,1.386,-3.122,-0.038641,-0.05275,0.000702,0.000796,1e-05,0.05
202,195,-4136,31,4,-63,1.513,-3.212,-0.036419,-0.054318,0.000702,0.000777,1e-05,0.05
176,176,-4123,-20,-9,-24,1.475,-3.075,-0.037088,-0.051922,0.000702,0.000762,1e-05,0.05
266,126,-4111,-42,8,24,1.455,-3.156,-0.037439,-0.053339,0.000702,0.000747,1e-05,0.05
133,110,-4117,-17,-10,71,1.455,-3.092,-0.037433,-0.05222,0.000702,0.00074,1e-05,0.05
215,135,-4113,-29,-13,144,1.466,-2.967,-0.03725,-0.05003,0.000702,0.000752,1e-05,0.05
230,156,-4137,-96,-18,181,1.314,-2.99,-0.039899,-0.050435,0.000702,0.000772,1e-05,0.05
240,201,-4132,-123,-16,118,0.968,-2.936,-0.045942,-0.049497,0.000702,0.00079,1e-05,0.05
232,178,-4102,-29,-74,67,0.803,-2.907,-0.048813,-0.048992,0.000702,0.00078,1e-05,0.05
245,109,-4123,12,-11,-19,0.91,-2.882,-0.046951,-0.048556,0.000702,0.00076,1e-05,0.05
199,160,-4123,-27,12,-64,0.982,-2.941,-0.045695,-0.049585,0.000702,0.000751,1e-05,0.05
218,149,-4127,-65,-10,-25,0.922,-2.914,-0.046734,-0.049117,0.000702,0.000742,1e-05,0.05
204,183,-4106,-74,7,8,0.799,-2.943,-0.048887,-0.049623,0.000702,0.000732,1e-05,0.05
158,197,-4111,-51,-18,78,0.654,-2.888,-0.051409,-0.048653,0.000702,0.000728,1e-05,0.05
230,251,-4100,-36,-6,81,0.545,-2.835,-0.053315,-0.04774,0.000702,0.000732,1e-05,0.05
216,254,-4117,-56,0,49,0.395,-2.885,-0.055937,-0.048612,0.000702,0.000731,1e-05,0.05
218,250,-4117,-109,-7,-60,0.143,-2.911,-0.060336,-0.049062,0.000702,0.000725,1e-05,0.05
225,216,-4126,-180,16,-109,-0.169,-2.977,-0.06579,-0.050215,0.000702,0.000734,1e-05,0.05
198,211,-4100,-184,-4,-101,-0.502,-3.013,-0.071598,-0.050849,0.000702,0.000741,1e-05,0.05
179,255,-4098,-177,12,-75,-0.706,-3.009,-0.075149,-0.050779,0.000702,0.000745,1e-05,0.05
233,304,-4103,-197,9,-109,-1.088,-3.038,-0.081813,-0.051276,0.000702,0.000746,1e-05,0.05
207,271,-4110,-182,15,-96,-1.41,-3.093,-0.087436,-0.052233,0.000702,0.000753,1e-05,0.05
198,231,-4077,-59,7,-40,-1.439,-3.088,-0.087946,-0.052145,0.000702,0.000748,1e-05,0.05
185,324,-4131,-87,10,-119,-1.46,-3.131,-0.08831,-0.052909,0.000702,0.000755,1e-05,0.05
212,335,-4111,-90,20,-123,-1.616,-3.147,-0.091036,-0.053173,0.000702,0.000763,1e-05,0.05
239,284,-4124,-91,19,-126,-1.658,-3.206,-0.091773,-0.054213,0.000702,0.000765,1e-05,0.05
239,429,-4164,-144,14,-229,-1.985,-3.299,-0.097469,-0.055841,0.000702,0.000795,1e-05,0.05
212,329,-4105,-58,38,-324,-2.04,-3.354,-0.098432,-0.056799,0.000702,0.000841,1e-05,0.05
190,377,-4053,-77,58,-369,-2.109,-3.495,-0.099647,-0.059247,0.000702,0.000896,1e-05,0.05
113,315,-4160,-82,64,-295,-2.078,-3.616,-0.099093,-0.061366,0.000702,0.000942,1e-05,0.05
248,393,-4150,-103,62,-316,-2.13,-3.737,-0.100004,-0.063474,0.000702,0.000962,1e-05,0.05
190,430,-4037,-160,45,-327,-2.502,-3.845,-0.106494,-0.065365,0.000702,0.001,1e-05,0.05
82,363,-4101,-252,90,-135,-2.668,-3.894,-0.109399,-0.06621,0.000702,0.001014,1e-05,0.05
103,527,-4058,11,13,-81,-3.115,-3.305,-0.117202,-0.055942,0.000702,0.00093,1e-05,0.05
1123,533,-3831,52,133,-715,-3.027,-3.619,-0.115664,-0.061418,0.000702,0.000964,1e-05,0.05
-570,357,-4276,-157,46,-592,-3.009,-3.897,-0.11535,-0.066271,0.000702,0.001046,1e-05,0.05
89,540,-3907,185,18,-588,-3.012,-3.774,-0.115394,-0.064121,0.000702,0.001117,1e-05,0.05
143,229,-4048,-177,282,-453,-2.734,-4.333,-0.110549,-0.073877,0.000702,0.001172,1e-05,0.05
-8,447,-4379,-231,77,-334,-3.092,-4.67,-0.116795,-0.079761,0.000702,0.001193,1e-05,0.05
158,489,-4005,-103,6,-414,-3.322,-4.705,-0.120819,-0.080376,0.000702,0.001203,1e-05,0.05
335,468,-4019,-217,88,-535,-3.597,-5.018,-0.125607,-0.085834,0.000702,0.001239,1e-05,0.05
-305,436,-4167,-105,59,-440,-3.722,-5.081,-0.127801,-0.08694,0.000702,0.001271,1e-05,0.05
126,635,-3657,-54,181,-530,-3.865,-5.317,-0.130284,-0.091048,0.000702,0.001319,1e-05,0.05
94,963,-3932,91,218,-562,-4.123,-5.796,-0.134789,-0.099413,0.000702,0.001365,1e-05,0.05
-139,962,-4135,195,165,-415,-4.32,-6.011,-0.138226,-0.103174,0.000702,0.001393,1e-05,0.05
265,1301,-3941,328,45,-343,-4.71,-6.044,-0.145043,-0.103746,0.000702,0.001382,1e-05,0.05
38,1251,-3975,536,-69,-72,-4.798,-5.577,-0.146565,-0.095594,0.000702,0.001281,1e-05,0.05
-224,1333,-3479,750,-40,388,-4.876,-4.373,-0.14793,-0.074584,0.000702,0.001181,1e-05,0.05
177,1239,-4553,726,41,616,-4.356,-4.136,-0.138853,-0.070433,0.000702,0.001244,1e-05,0.05
454,1004,-3882,678,-32,619,-3.878,-3.944,-0.130513,-0.067083,0.000702,0.001302,1e-05,0.05
316,923,-3874,627,-55,321,-3.306,-3.869,-0.120541,-0.065775,0.000702,0.001335,1e-05,0.05
421,674,-4152,459,-20,-31,-2.58,-3.983,-0.107861,-0.067765,0.000702,0.001187,1e-05,0.05
265,671,-4058,347,-7,-233,-2.155,-4.207,-0.100451,-0.071684,0.000702,0.001127,1e-05,0.05
88,574,-4099,501,9,-321,-1.539,-4.114,-0.089686,-0.070055,0.000702,0.001136,1e-05,0.05
154,375,-4171,413,-13,-314,-0.771,-3.982,-0.076282,-0.067754,0.000702,0.001148,1e-05,0.05
245,147,-4160,351,56,-297,0.325,-3.994,-0.057168,-0.067971,0.000702,0.001141,1e-05,0.05
258,133,-4068,291,17,-355,1.136,-4.037,-0.043004,-0.068711,0.000702,0.001152,1e-05,0.05
247,-227,-4229,155,-48,-297,2.201,-3.972,-0.024417,-0.067572,0.000702,0.001161,1e-05,0.05
216,-37,-4148,-167,-3,-263,2.623,-3.841,-0.01705,-0.065296,0.000702,0.001149,1e-05,0.05
173,-177,-4036,-346,-15,-162,2.297,-3.719,-0.02274,-0.06317,0.000702,0.001111,1e-05,0.05
192,-15,-4062,-381,-3,-187,1.9,-3.572,-0.029672,-0.060606,0.000702,0.001065,1e-05,0.05
273,-70,-4174,-301,-51,-101,1.382,-3.42,-0.038706,-0.057939,0.000702,0.000999,1e-05,0.05
169,-70,-3983,-177,-37,44,1.359,-3.325,-0.03912,-0.056291,0.000702,0.00092,1e-05,0.05
117,148,-4071,-70,-11,22,1.364,-2.989,-0.039029,-0.050419,0.000702,0.000874,1e-05,0.05
186,127,-4017,-59,40,8,1.278,-2.931,-0.040522,-0.049417,0.000702,0.000832,1e-05,0.05
230,122,-4206,-36,-13,118,1.202,-2.932,-0.041845,-0.049425,0.000702,0.000812,1e-05,0.05
99,133,-4115,45,-5,194,1.279,-2.8,-0.040502,-0.047121,0.000702,0.000821,1e-05,0.05
155,44,-4077,97,27,127,1.688,-2.717,-0.033379,-0.045681,0.000702,0.000823,1e-05,0.05
177,7,-4055,104,34,130,2.044,-2.803,-0.027159,-0.047183,0.000702,0.000819,1e-05,0.05
253,75,-4277,-31,21,57,2.173,-2.89,-0.024901,-0.048687,0.000702,0.000803,1e-05,0.05
230,-56,-4086,-69,-51,166,2.284,-2.949,-0.022972,-0.049728,0.000702,0.000798,1e-05,0.05
139,52,-4098,-121,-63,264,2.159,-2.726,-0.025147,-0.045832,0.000702,0.000832,1e-05,0.05
199,-21,-4096,-134,24,304,2.015,-2.691,-0.027661,-0.045217,0.000702,0.000881,1e-05,0.05
89,28,-4240,-88,-15,265,1.934,-2.621,-0.029081,-0.044006,0.000702,0.000914,1e-05,0.05
216,48,-4171,-61,-32,296,1.952,-2.482,-0.028764,-0.041572,0.000702,0.000946,1e-05,0.05
156,44,-3986,-56,29,280,2.018,-2.477,-0.027611,-0.04149,0.000702,0.000977,1e-05,0.05
99,75,-4092,-66,4,250,1.974,-2.439,-0.028377,-0.040818,0.000702,0.000978,1e-05,0.05
315,101,-4156,-107,-30,224,1.956,-2.481,-0.028685,-0.041563,0.000702,0.00098,1e-05,0.05
154,-32,-4142,-93,-21,324,1.877,-2.443,-0.030079,-0.040895,0.000702,0.001002,1e-05,0.05
90,49,-4191,-33,13,275,1.935,-2.278,-0.029055,-0.038009,0.000702,0.001025,1e-05,0.05
202,102,-4154,-121,-34,220,1.833,-2.374,-0.030835,-0.039691,0.000702,0.001029,1e-05,0.05
226,77,-4090,-101,-42,218,1.614,-2.467,-0.034667,-0.041316,0.000702,0.001017,1e-05,0.05
211,87,-4093,-123,-51,258,1.518,-2.337,-0.036342,-0.039042,0.000702,0.001037,1e-05,0.05
89,42,-4059,-74,2,257,1.308,-2.241,-0.040001,-0.037371,0.000702,0.001027,1e-05,0.05
238,138,-4082,-54,-29,194,1.346,-2.244,-0.039334,-0.037427,0.000702,0.001017,1e-05,0.05
131,64,-4152,-43,-30,211,1.308,-2.184,-0.039998,-0.036371,0.000702,0.001005,1e-05,0.05
238,30,-4314,-1,-40,248,1.4,-2.136,-0.038402,-0.03553,0.000702,0.000997,1e-05,0.05
60,88,-4122,44,-13,179,1.661,-2.083,-0.033841,-0.034611,0.000702,0.000991,1e-05,0.05
148,161,-4044,-49,30,109,1.559,-1.95,-0.035628,-0.032297,0.000702,0.000951,1e-05,0.05
263,172,-4142,-98,54,29,1.323,-2.474,-0.039748,-0.041438,0.000702,0.000892,1e-05,0.05
257,190,-4174,104,133,-507,1.35,-2.758,-0.039265,-0.046388,0.000702,0.0009,1e-05,0.05
469,3,-4294,101,88,-957,2.048,-3.159,-0.027093,-0.053387,0.000702,0.000985,1e-05,0.05
440,285,-4036,-5,79,-1034,2.227,-3.544,-0.023962,-0.060107,0.000702,0.001074,1e-05,0.05
267,153,-4104,-255,72,-964,1.997,-3.753,-0.027986,-0.063757,0.000702,0.001152,1e-05,0.05
236,72,-4124,-417,-25,-627,1.199,-3.9,-0.041898,-0.066325,0.000702,0.001236,1e-05,0.05
248,166,-3982,-600,-158,-129,0.148,-3.753,-0.060252,-0.063764,0.000702,0.001246,1e-05,0.05
4,343,-4045,-130,-64,119,-0.81,-3.098,-0.076969,-0.052328,0.000702,0.001107,1e-05,0.05
213,-172,-4389,-121,-94,-2,-0.615,-2.552,-0.073573,-0.042804,0.000702,0.00099,1e-05,0.05
398,286,-4218,-81,-2,37,-0.384,-2.739,-0.069538,-0.046053,0.000702,0.000918,1e-05,0.05
89,243,-4023,2,19,6,-0.386,-3.062,-0.069563,-0.051693,0.000702,0.000854,1e-05,0.05
208,354,-4041,-4,-24,53,-0.41,-2.845,-0.069993,-0.047909,0.000702,0.000819,1e-05,0.05
233,298,-4118,-126,-25,90,-0.642,-2.848,-0.074033,-0.047957,0.000702,0.000798,1e-05,0.05
144,317,-4141,-152,-5,21,-0.985,-2.809,-0.080024,-0.047275,0.000702,0.000781,1e-05,0.05
241,317,-4120,-144,2,-67,-1.28,-2.768,-0.085174,-0.04656,0.000702,0.000764,1e-05,0.05
198,341,-4122,-177,23,-67,-1.58,-2.895,-0.09041,-0.048777,0.000702,0.000756,1e-05,0.05
179,358,-4111,-181,0,-84,-1.925,-2.908,-0.096431,-0.049015,0.000702,0.000753,1e-05,0.05
208,382,-4065,19,20,-81,-2.079,-2.915,-0.099116,-0.049134,0.000702,0.000754,1e-05,0.05
235,315,-4114,-113,12,-118,-2.014,-3.009,-0.097979,-0.050766,0.000702,0.000754,1e-05,0.05
83,445,-4188,-255,34,41,-2.523,-3.02,-0.106865,-0.050958,0.000702,0.00076,1e-05,0.05
60,456,-4005,-177,-25,626,-3.092,-2.835,-0.116799,-0.047728,0.000702,0.00082,1e-05,0.05
178,391,-3931,-20,-79,776,-3.19,-2.443,-0.118506,-0.040897,0.000702,0.000916,1e-05,0.05
468,350,-4204,136,-149,566,-2.895,-2.105,-0.113363,-0.035001,0.000702,0.00099,1e-05,0.05
743,481,-3877,272,-294,-56,-2.465,-2.423,-0.105854,-0.04055,0.000702,0.000983,1e-05,0.05
-124,381,-4695,-187,-222,-262,-2.244,-2.541,-0.101992,-0.042599,0.000702,0.000983,1e-05,0.05
-41,819,-3701,-15,123,-319,-2.655,-2.088,-0.109172,-0.034701,0.000702,0.000981,1e-05,0.05
332,342,-3916,-314,52,-380,-3.046,-2.629,-0.115991,-0.044139,0.000702,0.001026,1e-05,0.05
-130,450,-4019,-30,39,-296,-3.325,-2.765,-0.120864,-0.046516,0.000702,0.001049,1e-05,0.05
265,275,-4453,-38,45,-268,-2.736,-2.675,-0.110583,-0.044944,0.000702,0.001034,1e-05,0.05
277,367,-3928,-234,121,-253,-2.938,-3.077,-0.114114,-0.051961,0.000702,0.001038,1e-05,0.05
23,609,-3999,78,53,-226,-3.198,-2.936,-0.118644,-0.049496,0.000702,0.00101,1e-05,0.05
414,451,-4408,-171,59,-347,-3.178,-3.265,-0.118302,-0.055235,0.000702,0.001016,1e-05,0.05
49,555,-4059,-187,49,-395,-3.694,-3.524,-0.12731,-0.059762,0.000702,0.001057,1e-05,0.05
9,470,-3971,26,43,-426,-3.627,-3.53,-0.126136,-0.05987,0.000702,0.001087,1e-05,0.05
76,375,-3884,-211,193,-358,-3.573,-3.857,-0.125188,-0.065572,0.000702,0.001127,1e-05,0.05
97,631,-4050,-21,118,-385,-3.878,-4.077,-0.130512,-0.069416,0.000702,0.001153,1e-05,0.05
178,810,-3780,139,60,-518,-3.995,-4.362,-0.13255,-0.074384,0.000702,0.001198,1e-05,0.05
212,1239,-3635,156,118,-683,-4.516,-4.774,-0.141658,-0.081571,0.000702,0.001261,1e-05,0.05
-119,1603,-4458,432,-100,-445,-5.032,-4.754,-0.150662,-0.081229,0.000702,0.001308,1e-05,0.05
-313,1493,-3434,940,120,341,-5.142,-3.414,-0.152579,-0.05784,0.000702,0.00118,1e-05,0.05
86,1351,-3844,1039,-65,1004,-4.399,-3.126,-0.139616,-0.052815,0.000702,0.001247,1e-05,0.05
231,1237,-4171,886,27,945,-3.488,-2.751,-0.123707,-0.04626,0.000702,0.001339,1e-05,0.05
538,967,-4115,701,-41,682,-2.745,-2.592,-0.11074,-0.043499,0.000702,0.00141,1e-05,0.05
436,863,-3976,527,0,177,-2.297,-2.903,-0.102918,-0.048922,0.000702,0.001376,1e-05,0.05
258,516,-4160,604,-66,-64,-1.644,-3.195,-0.091518,-0.054026,0.000702,0.001188,1e-05,0.05
178,319,-4144,564,-8,-179,-0.377,-3.168,-0.069417,-0.053549,0.000702,0.001107,1e-05,0.05
128,126,-4176,548,-4,-120,0.976,-3.014,-0.045801,-0.050859,0.000702,0.001033,1e-05,0.05
266,163,-4266,296,47,-161,2.19,-3.039,-0.024607,-0.051294,0.000702,0.00098,1e-05,0.05
272,59,-4243,72,-11,-102,2.442,-3.185,-0.020212,-0.053837,0.000702,0.000947,1e-05,0.05
186,-96,-4145,-51,-36,-11,2.605,-3.056,-0.017359,-0.051587,0.000702,0.000881,1e-05,0.05
167,-161,-4011,-42,-31,127,2.846,-2.88,-0.013153,-0.048517,0.000702,0.000841,1e-05,0.05
137,-110,-4092,-30,-8,128,3.123,-2.809,-0.008328,-0.047285,0.000702,0.000827,1e-05,0.05
196,-214,-4029,5,-5,279,3.571,-2.702,-0.00051,-0.045414,0.000702,0.000852,1e-05,0.05
-4,-65,-4098,-92,103,187,3.776,-2.675,0.003076,-0.044941,0.000702,0.000876,1e-05,0.05
222,-195,-4369,-158,4,195,3.617,-2.573,0.000303,-0.043163,0.000702,0.000881,1e-05,0.05
239,-119,-4155,-184,18,290,3.494,-2.681,-0.00185,-0.045047,0.000702,0.000914,1e-05,0.05
135,-206,-4003,-53,24,196,3.486,-2.856,-0.001991,-0.048103,0.000702,0.000932,1e-05,0.05
113,-243,-4118,-62,-3,320,3.712,-2.753,0.001961,-0.046297,0.000702,0.000965,1e-05,0.05
100,-156,-4391,-103,32,449,3.738,-2.698,0.002404,-0.045337,0.000702,0.001019,1e-05,0.05
-27,-101,-3982,-93,37,382,3.697,-2.618,0.00169,-0.043949,0.000702,0.001062,1e-05,0.05
85,-138,-4071,-139,36,381,3.616,-2.655,0.000283,-0.044595,0.000702,0.001099,1e-05,0.05
149,-153,-4181,-83,34,434,3.601,-2.68,1.1e-05,-0.045023,0.000702,0.001136,1e-05,0.05
161,-23,-4279,-97,-4,334,3.469,-2.646,-0.002285,-0.044435,0.000702,0.001155,1e-05,0.05
216,-118,-4217,-90,-44,354,3.455,-2.61,-0.002536,-0.043816,0.000702,0.001174,1e-05,0.05
108,-209,-4142,-170,3,486,3.496,-2.527,-0.001814,-0.042357,0.000702,0.00119,1e-05,0.05
-261,-420,-3486,-26,136,708,3.976,-2.516,0.00657,-0.042165,0.000702,0.001237,1e-05,0.05
12,-639,-4490,-108,-269,1329,5.27,-2.671,0.029147,-0.04488,0.000702,0.001323,1e-05,0.05
-22,-336,-4997,-185,45,1527,6.386,-3.193,0.048626,-0.053979,0.000702,0.001416,1e-05,0.05
-468,-785,-3978,-626,-33,1045,6.26,-3.199,0.04643,-0.054092,0.000702,0.001503,1e-05,0.05
433,-908,-3807,-736,3,831,5.501,-3.227,0.033183,-0.054584,0.000702,0.001575,1e-05,0.05
587,-437,-4349,-759,58,592,4.575,-3.634,0.017015,-0.061681,0.000702,0.001624,1e-05,0.05
16,-221,-4304,-776,-179,173,3.132,-3.193,-0.008165,-0.053989,0.000702,0.001569,1e-05,0.05
147,-277,-3912,-586,37,-116,1.968,-2.75,-0.028486,-0.046247,0.000702,0.00128,1e-05,0.05
286,425,-4124,6,-5,-144,1.345,-3.2,-0.039352,-0.054102,0.000702,0.001168,1e-05,0.05
342,56,-4110,48,-100,-18,1.493,-3.323,-0.036776,-0.056259,0.000702,0.001042,1e-05,0.05
311,45,-4048,47,-50,77,1.795,-3.653,-0.031506,-0.062011,0.000702,0.000953,1e-05,0.05
-87,299,-4224,74,-125,23,1.783,-3.178,-0.031706,-0.053713,0.000702,0.000889,1e-05,0.05
170,-73,-4064,-122,62,-128,1.484,-2.859,-0.036928,-0.048146,0.000702,0.000856,1e-05,0.05
306,332,-4119,3,75,-167,1.154,-3.262,-0.042683,-0.055191,0.000702,0.000861,1e-05,0.05
175,76,-4137,-136,14,-84,1.1,-3.337,-0.043637,-0.056495,0.000702,0.000851,1e-05,0.05
192,279,-4127,-118,-10,51,0.664,-3.237,-0.051241,-0.054749,0.000702,0.000811,1e-05,0.05
180,368,-4102,-119,-23,80,0.212,-3.048,-0.05914,-0.051457,0.000702,0.000792,1e-05,0.05
195,120,-4184,-411,-22,90,-0.48,-2.93,-0.071201,-0.049398,0.000702,0.000784,1e-05,0.05
231,606,-3943,-199,-38,30,-1.543,-2.915,-0.089771,-0.049133,0.000702,0.000771,1e-05,0.05
343,658,-4113,-63,-25,-60,-2.328,-3.075,-0.103467,-0.051916,0.000702,0.000757,1e-05,0.05
184,645,-4075,70,-119,-26,-2.67,-2.912,-0.109426,-0.049078,0.000702,0.000745,1e-05,0.05
187,776,-4005,476,-112,-139,-2.587,-2.772,-0.107981,-0.046642,0.000702,0.000766,1e-05,0.05
355,585,-3406,487,-197,28,-1.998,-2.707,-0.097708,-0.045503,0.000702,0.000754,1e-05,0.05
350,450,-4416,76,-2,61,-1.541,-2.772,-0.089723,-0.046632,0.000702,0.000751,1e-05,0.05
20,688,-4238,181,94,-55,-1.618,-2.974,-0.091073,-0.050162,0.000702,0.000741,1e-05,0.05
84,446,-4144,330,73,0,-1.454,-2.866,-0.088217,-0.048268,0.000702,0.000736,1e-05,0.05
283,425,-4162,503,84,124,-0.386,-3.014,-0.069572,-0.050855,0.000702,0.000742,1e-05,0.05
276,193,-4059,388,-21,135,0.57,-3.202,-0.052877,-0.054143,0.000702,0.000755,1e-05,0.05
242,248,-3880,317,123,11,1.183,-3.407,-0.042191,-0.057723,0.000702,0.000745,1e-05,0.05
199,-256,-4361,110,1,130,1.878,-3.602,-0.030057,-0.061115,0.000702,0.00074,1e-05,0.05
246,89,-4270,-129,-88,57,2.216,-3.369,-0.024163,-0.057058,0.000702,0.000749,1e-05,0.05
225,-134,-4033,-65,28,84,2.017,-3.283,-0.027628,-0.05555,0.000702,0.000742,1e-05,0.05
226,-296,-4286,-246,-8,167,2.221,-3.249,-0.024068,-0.054953,0.000702,0.000756,1e-05,0.05
274,-84,-4002,-300,-50,39,1.992,-3.184,-0.028068,-0.05383,0.000702,0.000766,1e-05,0.05
259,14,-4090,-255,-11,-174,1.617,-3.223,-0.034611,-0.054503,0.000702,0.000761,1e-05,0.05
219,401,-3994,-150,35,-430,0.99,-3.313,-0.045555,-0.056072,0.000702,0.000817,1e-05,0.05
276,206,-4149,-127,40,-395,0.486,-3.445,-0.054343,-0.058384,0.000702,0.000882,1e-05,0.05
189,325,-4007,146,101,-371,0.366,-3.622,-0.056452,-0.061463,0.000702,0.000935,1e-05,0.05
241,652,-4031,264,10,-212,0.359,-3.685,-0.056572,-0.062565,0.000702,0.000962,1e-05,0.05
216,134,-4222,-28,15,39,0.616,-3.66,-0.052083,-0.062137,0.000702,0.000907,1e-05,0.05
122,379,-4024,252,17,92,0.713,-3.436,-0.050381,-0.058232,0.000702,0.000876,1e-05,0.05
279,118,-4273,48,4,37,1.106,-3.386,-0.043532,-0.05736,0.000702,0.000833,1e-05,0.05
210,155,-4100,0,10,37,1.088,-3.38,-0.043839,-0.057247,0.000702,0.000803,1e-05,0.05
224,294,-4052,54,22,-41,1.058,-3.349,-0.044373,-0.056705,0.000702,0.000778,1e-05,0.05
238,178,-4127,-25,31,-81,1.039,-3.441,-0.044697,-0.058311,0.000702,0.000767,1e-05,0.05
271,220,-4096,-35,29,-120,0.971,-3.545,-0.045879,-0.060119,0.000702,0.000766,1e-05,0.05
205,308,-4133,47,0,-124,0.805,-3.55,-0.048781,-0.06021,0.000702,0.000776,1e-05,0.05
403,55,-4235,-51,148,-50,0.968,-3.806,-0.045933,-0.064681,0.000702,0.00077,1e-05,0.05
177,400,-4132,183,-36,-84,1.153,-3.59,-0.042711,-0.060906,0.000702,0.000764,1e-05,0.05
386,130,-4063,148,9,-33,1.575,-3.76,-0.035351,-0.063878,0.000702,0.000753,1e-05,0.05
273,68,-4254,49,-65,-26,1.806,-3.743,-0.031315,-0.06358,0.000702,0.000744,1e-05,0.05
129,159,-4019,105,-54,-117,1.938,-3.43,-0.029004,-0.058124,0.000702,0.000757,1e-05,0.05
127,139,-4105,77,33,41,2.307,-3.374,-0.022562,-0.057151,0.000702,0.000754,1e-05,0.05
230,15,-4201,-36,4,41,2.395,-3.424,-0.021032,-0.058019,0.000702,0.000742,1e-05,0.05
281,56,-4142,-180,-4,54,2.298,-3.417,-0.022725,-0.057888,0.000702,0.000735,1e-05,0.05
170,34,-4116,-264,0,-91,1.906,-3.42,-0.029563,-0.057946,0.000702,0.00073,1e-05,0.05
269,-108,-4065,-119,14,-50,1.791,-3.471,-0.031579,-0.058834,0.000702,0.00073,1e-05,0.05
226,-144,-4173,-57,5,10,2.208,-3.521,-0.024289,-0.059711,0.000702,0.000725,1e-05,0.05
203,55,-4136,-100,-17,128,2.241,-3.424,-0.023715,-0.058014,0.000702,0.000732,1e-05,0.05
217,245,-4130,-78,-55,123,1.734,-3.276,-0.032575,-0.055439,0.000702,0.000754,1e-05,0.05
257,341,-4111,-58,6,-39,1.185,-3.285,-0.042152,-0.05559,0.000702,0.000757,1e-05,0.05
362,226,-4041,4,21,-236,0.919,-3.361,-0.046789,-0.056909,0.000702,0.000779,1e-05,0.05
321,208,-4071,25,29,-224,0.832,-3.535,-0.048316,-0.059956,0.000702,0.00082,1e-05,0.05
144,233,-4117,78,27,-224,1.009,-3.606,-0.045215,-0.061196,0.000702,0.000841,1e-05,0.05
241,205,-4159,-3,-2,-344,1.07,-3.586,-0.044159,-0.060846,0.000702,0.000884,1e-05,0.05
101,383,-4019,19,58,-217,1.155,-3.749,-0.04268,-0.063688,0.000702,0.000903,1e-05,0.05
